set_id,bc_ratio,information_condition,round_number,population_size,participant_id,seat_id,action,payoff
1026,6,full_information,1,6,rt112325,5,defect,12
1026,6,full_information,1,6,rt468265,2062,defect,12
1026,6,full_information,1,6,rt856582,2240,cooperate,-4
1026,6,full_information,1,6,rt917459,5062,defect,12
1026,6,full_information,1,6,rt188425,5655,defect,12
1026,6,full_information,1,6,rt817311,6195,cooperate,-4
1026,6,full_information,2,6,rt112325,5,defect,6
1026,6,full_information,2,6,rt468265,2062,defect,0
1026,6,full_information,2,6,rt856582,2240,defect,6
1026,6,full_information,2,6,rt917459,5062,defect,6
1026,6,full_information,2,6,rt188425,5655,cooperate,-4
1026,6,full_information,2,6,rt817311,6195,defect,6
1026,6,full_information,3,6,rt112325,5,defect,6
1026,6,full_information,3,6,rt468265,2062,defect,0
1026,6,full_information,3,6,rt856582,2240,defect,6
1026,6,full_information,3,6,rt917459,5062,defect,6
1026,6,full_information,3,6,rt188425,5655,cooperate,-4
1026,6,full_information,3,6,rt817311,6195,defect,6
1026,6,full_information,4,6,rt112325,5,defect,12
1026,6,full_information,4,6,rt468265,2062,cooperate,2
1026,6,full_information,4,6,rt856582,2240,cooperate,2
1026,6,full_information,4,6,rt917459,5062,defect,12
1026,6,full_information,4,6,rt188425,5655,defect,6
1026,6,full_information,4,6,rt817311,6195,defect,6
1026,6,full_information,5,6,rt112325,5,defect,0
1026,6,full_information,5,6,rt468265,2062,defect,0
1026,6,full_information,5,6,rt856582,2240,defect,0
1026,6,full_information,5,6,rt917459,5062,defect,0
1026,6,full_information,5,6,rt188425,5655,defect,0
1026,6,full_information,5,6,rt817311,6195,defect,0
1026,6,full_information,6,6,rt112325,5,defect,6
1026,6,full_information,6,6,rt468265,2062,defect,6
1026,6,full_information,6,6,rt856582,2240,defect,0
1026,6,full_information,6,6,rt917459,5062,defect,6
1026,6,full_information,6,6,rt188425,5655,defect,6
1026,6,full_information,6,6,rt817311,6195,cooperate,-4
1026,6,full_information,7,6,rt112325,5,defect,12
1026,6,full_information,7,6,rt468265,2062,defect,6
1026,6,full_information,7,6,rt856582,2240,cooperate,2
1026,6,full_information,7,6,rt917459,5062,defect,12
1026,6,full_information,7,6,rt188425,5655,cooperate,2
1026,6,full_information,7,6,rt817311,6195,defect,6
1026,6,full_information,8,6,rt112325,5,defect,6
1026,6,full_information,8,6,rt468265,2062,defect,6
1026,6,full_information,8,6,rt856582,2240,cooperate,-4
1026,6,full_information,8,6,rt917459,5062,defect,6
1026,6,full_information,8,6,rt188425,5655,defect,6
1026,6,full_information,8,6,rt817311,6195,defect,0
1026,6,full_information,9,6,rt112325,5,defect,6
1026,6,full_information,9,6,rt468265,2062,defect,6
1026,6,full_information,9,6,rt856582,2240,cooperate,-4
1026,6,full_information,9,6,rt917459,5062,defect,6
1026,6,full_information,9,6,rt188425,5655,defect,6
1026,6,full_information,9,6,rt817311,6195,defect,0
1026,6,full_information,10,6,rt112325,5,defect,6
1026,6,full_information,10,6,rt468265,2062,defect,6
1026,6,full_information,10,6,rt856582,2240,defect,0
1026,6,full_information,10,6,rt917459,5062,defect,6
1026,6,full_information,10,6,rt188425,5655,defect,6
1026,6,full_information,10,6,rt817311,6195,cooperate,-4
1026,6,full_information,11,6,rt112325,5,cooperate,-4
1026,6,full_information,11,6,rt468265,2062,defect,12
1026,6,full_information,11,6,rt856582,2240,defect,12
1026,6,full_information,11,6,rt917459,5062,cooperate,-4
1026,6,full_information,11,6,rt188425,5655,defect,12
1026,6,full_information,11,6,rt817311,6195,defect,12
1026,6,full_information,12,6,rt112325,5,cooperate,-4
1026,6,full_information,12,6,rt468265,2062,defect,6
1026,6,full_information,12,6,rt856582,2240,defect,6
1026,6,full_information,12,6,rt917459,5062,defect,0
1026,6,full_information,12,6,rt188425,5655,defect,6
1026,6,full_information,12,6,rt817311,6195,defect,6
1026,6,full_information,13,6,rt112325,5,defect,0
1026,6,full_information,13,6,rt468265,2062,defect,0
1026,6,full_information,13,6,rt856582,2240,defect,0
1026,6,full_information,13,6,rt917459,5062,defect,0
1026,6,full_information,13,6,rt188425,5655,defect,0
1026,6,full_information,13,6,rt817311,6195,defect,0
1026,6,full_information,14,6,rt112325,5,defect,0
1026,6,full_information,14,6,rt468265,2062,defect,0
1026,6,full_information,14,6,rt856582,2240,defect,0
1026,6,full_information,14,6,rt917459,5062,defect,0
1026,6,full_information,14,6,rt188425,5655,defect,0
1026,6,full_information,14,6,rt817311,6195,defect,0
1026,6,full_information,15,6,rt112325,5,cooperate,2
1026,6,full_information,15,6,rt468265,2062,defect,12
1026,6,full_information,15,6,rt856582,2240,defect,6
1026,6,full_information,15,6,rt917459,5062,defect,6
1026,6,full_information,15,6,rt188425,5655,defect,12
1026,6,full_information,15,6,rt817311,6195,cooperate,2
1026,6,summary_information,1,6,rt917459,2402,defect,0
1026,6,summary_information,1,6,rt188425,3011,defect,6
1026,6,summary_information,1,6,rt112325,3784,defect,6
1026,6,summary_information,1,6,rt856582,7420,cooperate,-4
1026,6,summary_information,1,6,rt817311,8563,defect,6
1026,6,summary_information,1,6,rt468265,9605,defect,6
1026,6,summary_information,2,6,rt917459,2402,defect,6
1026,6,summary_information,2,6,rt188425,3011,defect,6
1026,6,summary_information,2,6,rt112325,3784,cooperate,-4
1026,6,summary_information,2,6,rt856582,7420,defect,6
1026,6,summary_information,2,6,rt817311,8563,defect,6
1026,6,summary_information,2,6,rt468265,9605,defect,0
1026,6,summary_information,3,6,rt917459,2402,defect,0
1026,6,summary_information,3,6,rt188425,3011,defect,0
1026,6,summary_information,3,6,rt112325,3784,defect,0
1026,6,summary_information,3,6,rt856582,7420,defect,0
1026,6,summary_information,3,6,rt817311,8563,defect,0
1026,6,summary_information,3,6,rt468265,9605,defect,0
1026,6,summary_information,4,6,rt917459,2402,defect,6
1026,6,summary_information,4,6,rt188425,3011,defect,6
1026,6,summary_information,4,6,rt112325,3784,defect,12
1026,6,summary_information,4,6,rt856582,7420,cooperate,2
1026,6,summary_information,4,6,rt817311,8563,cooperate,2
1026,6,summary_information,4,6,rt468265,9605,defect,12
1026,6,summary_information,5,6,rt917459,2402,defect,0
1026,6,summary_information,5,6,rt188425,3011,defect,6
1026,6,summary_information,5,6,rt112325,3784,defect,6
1026,6,summary_information,5,6,rt856582,7420,cooperate,-4
1026,6,summary_information,5,6,rt817311,8563,defect,6
1026,6,summary_information,5,6,rt468265,9605,defect,6
1026,6,summary_information,6,6,rt917459,2402,defect,0
1026,6,summary_information,6,6,rt188425,3011,defect,6
1026,6,summary_information,6,6,rt112325,3784,defect,6
1026,6,summary_information,6,6,rt856582,7420,cooperate,-4
1026,6,summary_information,6,6,rt817311,8563,defect,6
1026,6,summary_information,6,6,rt468265,9605,defect,6
1026,6,summary_information,7,6,rt917459,2402,defect,0
1026,6,summary_information,7,6,rt188425,3011,defect,0
1026,6,summary_information,7,6,rt112325,3784,defect,0
1026,6,summary_information,7,6,rt856582,7420,defect,0
1026,6,summary_information,7,6,rt817311,8563,defect,0
1026,6,summary_information,7,6,rt468265,9605,defect,0
1026,6,summary_information,8,6,rt917459,2402,defect,6
1026,6,summary_information,8,6,rt188425,3011,defect,0
1026,6,summary_information,8,6,rt112325,3784,defect,6
1026,6,summary_information,8,6,rt856582,7420,defect,6
1026,6,summary_information,8,6,rt817311,8563,cooperate,-4
1026,6,summary_information,8,6,rt468265,9605,defect,6
1026,6,summary_information,9,6,rt917459,2402,defect,0
1026,6,summary_information,9,6,rt188425,3011,defect,0
1026,6,summary_information,9,6,rt112325,3784,defect,0
1026,6,summary_information,9,6,rt856582,7420,defect,0
1026,6,summary_information,9,6,rt817311,8563,defect,0
1026,6,summary_information,9,6,rt468265,9605,defect,0
1026,6,summary_information,10,6,rt917459,2402,defect,0
1026,6,summary_information,10,6,rt188425,3011,defect,0
1026,6,summary_information,10,6,rt112325,3784,defect,0
1026,6,summary_information,10,6,rt856582,7420,defect,0
1026,6,summary_information,10,6,rt817311,8563,defect,0
1026,6,summary_information,10,6,rt468265,9605,defect,0
1026,6,summary_information,11,6,rt917459,2402,defect,6
1026,6,summary_information,11,6,rt188425,3011,defect,0
1026,6,summary_information,11,6,rt112325,3784,defect,6
1026,6,summary_information,11,6,rt856582,7420,defect,6
1026,6,summary_information,11,6,rt817311,8563,cooperate,-4
1026,6,summary_information,11,6,rt468265,9605,defect,6
1026,6,summary_information,12,6,rt917459,2402,defect,6
1026,6,summary_information,12,6,rt188425,3011,defect,0
1026,6,summary_information,12,6,rt112325,3784,defect,6
1026,6,summary_information,12,6,rt856582,7420,defect,6
1026,6,summary_information,12,6,rt817311,8563,cooperate,-4
1026,6,summary_information,12,6,rt468265,9605,defect,6
1026,6,summary_information,13,6,rt917459,2402,defect,0
1026,6,summary_information,13,6,rt188425,3011,defect,0
1026,6,summary_information,13,6,rt112325,3784,defect,0
1026,6,summary_information,13,6,rt856582,7420,defect,0
1026,6,summary_information,13,6,rt817311,8563,defect,0
1026,6,summary_information,13,6,rt468265,9605,defect,0
1026,6,summary_information,14,6,rt917459,2402,defect,0
1026,6,summary_information,14,6,rt188425,3011,defect,0
1026,6,summary_information,14,6,rt112325,3784,defect,0
1026,6,summary_information,14,6,rt856582,7420,defect,0
1026,6,summary_information,14,6,rt817311,8563,defect,0
1026,6,summary_information,14,6,rt468265,9605,defect,0
1026,6,summary_information,15,6,rt917459,2402,defect,0
1026,6,summary_information,15,6,rt188425,3011,defect,0
1026,6,summary_information,15,6,rt112325,3784,defect,0
1026,6,summary_information,15,6,rt856582,7420,defect,0
1026,6,summary_information,15,6,rt817311,8563,defect,0
1026,6,summary_information,15,6,rt468265,9605,defect,0
1026,6,behavior_only,1,1,rt437676,581,cooperate,20
1026,6,behavior_only,2,1,rt437676,581,cooperate,20
1026,6,behavior_only,3,1,rt437676,581,cooperate,20
1026,6,behavior_only,4,1,rt437676,581,defect,0
1026,6,behavior_only,5,1,rt437676,581,cooperate,20
1026,6,behavior_only,6,1,rt437676,581,cooperate,20
1026,6,behavior_only,7,7,rt917459,300,defect,12
1026,6,behavior_only,7,7,rt437676,581,cooperate,-4
1026,6,behavior_only,7,7,rt188425,727,defect,12
1026,6,behavior_only,7,7,rt856582,777,defect,18
1026,6,behavior_only,7,7,rt112325,2020,cooperate,2
1026,6,behavior_only,7,7,rt817311,4078,cooperate,2
1026,6,behavior_only,7,7,rt468265,7397,defect,18
1026,6,behavior_only,8,7,rt917459,300,defect,6
1026,6,behavior_only,8,7,rt437676,581,cooperate,-4
1026,6,behavior_only,8,7,rt188425,727,defect,12
1026,6,behavior_only,8,7,rt856582,777,defect,12
1026,6,behavior_only,8,7,rt112325,2020,cooperate,-4
1026,6,behavior_only,8,7,rt817311,4078,defect,6
1026,6,behavior_only,8,7,rt468265,7397,defect,12
1026,6,behavior_only,9,7,rt917459,300,defect,0
1026,6,behavior_only,9,7,rt437676,581,defect,0
1026,6,behavior_only,9,7,rt188425,727,defect,6
1026,6,behavior_only,9,7,rt856582,777,defect,6
1026,6,behavior_only,9,7,rt112325,2020,cooperate,-4
1026,6,behavior_only,9,7,rt817311,4078,defect,6
1026,6,behavior_only,9,7,rt468265,7397,defect,6
1026,6,behavior_only,10,7,rt917459,300,defect,12
1026,6,behavior_only,10,7,rt437676,581,cooperate,2
1026,6,behavior_only,10,7,rt188425,727,cooperate,8
1026,6,behavior_only,10,7,rt856582,777,defect,18
1026,6,behavior_only,10,7,rt112325,2020,cooperate,2
1026,6,behavior_only,10,7,rt817311,4078,defect,6
1026,6,behavior_only,10,7,rt468265,7397,defect,12
1026,6,behavior_only,11,7,rt917459,300,defect,6
1026,6,behavior_only,11,7,rt437676,581,cooperate,-4
1026,6,behavior_only,11,7,rt188425,727,defect,12
1026,6,behavior_only,11,7,rt856582,777,defect,12
1026,6,behavior_only,11,7,rt112325,2020,cooperate,-4
1026,6,behavior_only,11,7,rt817311,4078,defect,6
1026,6,behavior_only,11,7,rt468265,7397,defect,12
1026,6,behavior_only,12,7,rt917459,300,defect,0
1026,6,behavior_only,12,7,rt437676,581,defect,0
1026,6,behavior_only,12,7,rt188425,727,defect,6
1026,6,behavior_only,12,7,rt856582,777,defect,6
1026,6,behavior_only,12,7,rt112325,2020,cooperate,-4
1026,6,behavior_only,12,7,rt817311,4078,defect,6
1026,6,behavior_only,12,7,rt468265,7397,defect,6
1026,6,behavior_only,13,7,rt917459,300,defect,6
1026,6,behavior_only,13,7,rt437676,581,defect,6
1026,6,behavior_only,13,7,rt188425,727,cooperate,-4
1026,6,behavior_only,13,7,rt856582,777,defect,6
1026,6,behavior_only,13,7,rt112325,2020,defect,6
1026,6,behavior_only,13,7,rt817311,4078,defect,0
1026,6,behavior_only,13,7,rt468265,7397,defect,0
1026,6,behavior_only,14,7,rt917459,300,defect,0
1026,6,behavior_only,14,7,rt437676,581,defect,0
1026,6,behavior_only,14,7,rt188425,727,defect,0
1026,6,behavior_only,14,7,rt856582,777,defect,0
1026,6,behavior_only,14,7,rt112325,2020,defect,0
1026,6,behavior_only,14,7,rt817311,4078,defect,0
1026,6,behavior_only,14,7,rt468265,7397,defect,0
1026,6,behavior_only,15,7,rt917459,300,defect,0
1026,6,behavior_only,15,7,rt437676,581,defect,0
1026,6,behavior_only,15,7,rt188425,727,defect,0
1026,6,behavior_only,15,7,rt856582,777,defect,0
1026,6,behavior_only,15,7,rt112325,2020,defect,0
1026,6,behavior_only,15,7,rt817311,4078,defect,0
1026,6,behavior_only,15,7,rt468265,7397,defect,0
1234,4,behavior_only,1,17,rt612233,87,defect,8
1234,4,behavior_only,1,17,rt849173,280,defect,8
1234,4,behavior_only,1,17,rt917261,1034,defect,4
1234,4,behavior_only,1,17,rt337344,2031,cooperate,-4
1234,4,behavior_only,1,17,rt865762,2853,defect,4
1234,4,behavior_only,1,17,rt153831,3460,defect,4
1234,4,behavior_only,1,17,rt739245,4145,defect,0
1234,4,behavior_only,1,17,rt876556,5278,defect,4
1234,4,behavior_only,1,17,rt525137,6055,defect,4
1234,4,behavior_only,1,17,rt919080,6464,cooperate,0
1234,4,behavior_only,1,17,rt310524,6982,defect,12
1234,4,behavior_only,1,17,rt845286,7116,cooperate,4
1234,4,behavior_only,1,17,rt592001,7523,cooperate,0
1234,4,behavior_only,1,17,rt712233,8516,defect,12
1234,4,behavior_only,1,17,rt671551,8927,defect,12
1234,4,behavior_only,1,17,rt217519,9098,cooperate,0
1234,4,behavior_only,1,17,rt819651,9280,cooperate,0
1234,4,behavior_only,2,17,rt612233,87,defect,8
1234,4,behavior_only,2,17,rt849173,280,defect,4
1234,4,behavior_only,2,17,rt917261,1034,defect,0
1234,4,behavior_only,2,17,rt337344,2031,defect,4
1234,4,behavior_only,2,17,rt865762,2853,defect,4
1234,4,behavior_only,2,17,rt153831,3460,cooperate,-4
1234,4,behavior_only,2,17,rt739245,4145,defect,4
1234,4,behavior_only,2,17,rt876556,5278,defect,4
1234,4,behavior_only,2,17,rt525137,6055,defect,0
1234,4,behavior_only,2,17,rt919080,6464,defect,4
1234,4,behavior_only,2,17,rt310524,6982,defect,8
1234,4,behavior_only,2,17,rt845286,7116,cooperate,0
1234,4,behavior_only,2,17,rt592001,7523,cooperate,0
1234,4,behavior_only,2,17,rt712233,8516,defect,12
1234,4,behavior_only,2,17,rt671551,8927,defect,12
1234,4,behavior_only,2,17,rt217519,9098,cooperate,0
1234,4,behavior_only,2,17,rt819651,9280,cooperate,0
1234,4,behavior_only,3,17,rt612233,87,defect,8
1234,4,behavior_only,3,17,rt849173,280,defect,8
1234,4,behavior_only,3,17,rt917261,1034,cooperate,-4
1234,4,behavior_only,3,17,rt337344,2031,defect,8
1234,4,behavior_only,3,17,rt865762,2853,defect,8
1234,4,behavior_only,3,17,rt153831,3460,cooperate,-4
1234,4,behavior_only,3,17,rt739245,4145,defect,4
1234,4,behavior_only,3,17,rt876556,5278,defect,4
1234,4,behavior_only,3,17,rt525137,6055,defect,0
1234,4,behavior_only,3,17,rt919080,6464,defect,4
1234,4,behavior_only,3,17,rt310524,6982,defect,4
1234,4,behavior_only,3,17,rt845286,7116,cooperate,-4
1234,4,behavior_only,3,17,rt592001,7523,defect,4
1234,4,behavior_only,3,17,rt712233,8516,defect,4
1234,4,behavior_only,3,17,rt671551,8927,defect,4
1234,4,behavior_only,3,17,rt217519,9098,defect,4
1234,4,behavior_only,3,17,rt819651,9280,cooperate,-4
1234,4,behavior_only,4,17,rt612233,87,defect,0
1234,4,behavior_only,4,17,rt849173,280,defect,0
1234,4,behavior_only,4,17,rt917261,1034,defect,4
1234,4,behavior_only,4,17,rt337344,2031,defect,4
1234,4,behavior_only,4,17,rt865762,2853,cooperate,0
1234,4,behavior_only,4,17,rt153831,3460,defect,8
1234,4,behavior_only,4,17,rt739245,4145,cooperate,4
1234,4,behavior_only,4,17,rt876556,5278,defect,8
1234,4,behavior_only,4,17,rt525137,6055,cooperate,0
1234,4,behavior_only,4,17,rt919080,6464,defect,4
1234,4,behavior_only,4,17,rt310524,6982,defect,4
1234,4,behavior_only,4,17,rt845286,7116,defect,0
1234,4,behavior_only,4,17,rt592001,7523,defect,0
1234,4,behavior_only,4,17,rt712233,8516,defect,0
1234,4,behavior_only,4,17,rt671551,8927,defect,0
1234,4,behavior_only,4,17,rt217519,9098,defect,0
1234,4,behavior_only,4,17,rt819651,9280,defect,0
1234,4,behavior_only,5,17,rt612233,87,cooperate,0
1234,4,behavior_only,5,17,rt849173,280,defect,12
1234,4,behavior_only,5,17,rt917261,1034,cooperate,4
1234,4,behavior_only,5,17,rt337344,2031,cooperate,0
1234,4,behavior_only,5,17,rt865762,2853,defect,12
1234,4,behavior_only,5,17,rt153831,3460,defect,8
1234,4,behavior_only,5,17,rt739245,4145,cooperate,-4
1234,4,behavior_only,5,17,rt876556,5278,defect,8
1234,4,behavior_only,5,17,rt525137,6055,defect,8
1234,4,behavior_only,5,17,rt919080,6464,cooperate,0
1234,4,behavior_only,5,17,rt310524,6982,defect,8
1234,4,behavior_only,5,17,rt845286,7116,cooperate,0
1234,4,behavior_only,5,17,rt592001,7523,defect,8
1234,4,behavior_only,5,17,rt712233,8516,defect,8
1234,4,behavior_only,5,17,rt671551,8927,cooperate,-4
1234,4,behavior_only,5,17,rt217519,9098,defect,8
1234,4,behavior_only,5,17,rt819651,9280,defect,8
1234,4,behavior_only,6,17,rt612233,87,defect,4
1234,4,behavior_only,6,17,rt849173,280,defect,4
1234,4,behavior_only,6,17,rt917261,1034,cooperate,0
1234,4,behavior_only,6,17,rt337344,2031,defect,8
1234,4,behavior_only,6,17,rt865762,2853,cooperate,0
1234,4,behavior_only,6,17,rt153831,3460,defect,4
1234,4,behavior_only,6,17,rt739245,4145,defect,4
1234,4,behavior_only,6,17,rt876556,5278,defect,0
1234,4,behavior_only,6,17,rt525137,6055,defect,0
1234,4,behavior_only,6,17,rt919080,6464,defect,4
1234,4,behavior_only,6,17,rt310524,6982,defect,4
1234,4,behavior_only,6,17,rt845286,7116,cooperate,-4
1234,4,behavior_only,6,17,rt592001,7523,defect,4
1234,4,behavior_only,6,17,rt712233,8516,defect,4
1234,4,behavior_only,6,17,rt671551,8927,defect,0
1234,4,behavior_only,6,17,rt217519,9098,defect,0
1234,4,behavior_only,6,17,rt819651,9280,defect,0
1234,4,behavior_only,7,17,rt612233,87,defect,4
1234,4,behavior_only,7,17,rt849173,280,defect,4
1234,4,behavior_only,7,17,rt917261,1034,cooperate,-4
1234,4,behavior_only,7,17,rt337344,2031,defect,4
1234,4,behavior_only,7,17,rt865762,2853,defect,4
1234,4,behavior_only,7,17,rt153831,3460,defect,0
1234,4,behavior_only,7,17,rt739245,4145,defect,4
1234,4,behavior_only,7,17,rt876556,5278,defect,4
1234,4,behavior_only,7,17,rt525137,6055,cooperate,-4
1234,4,behavior_only,7,17,rt919080,6464,defect,8
1234,4,behavior_only,7,17,rt310524,6982,defect,8
1234,4,behavior_only,7,17,rt845286,7116,cooperate,-4
1234,4,behavior_only,7,17,rt592001,7523,defect,4
1234,4,behavior_only,7,17,rt712233,8516,defect,4
1234,4,behavior_only,7,17,rt671551,8927,defect,0
1234,4,behavior_only,7,17,rt217519,9098,defect,0
1234,4,behavior_only,7,17,rt819651,9280,defect,0
1234,4,behavior_only,8,17,rt612233,87,cooperate,-4
1234,4,behavior_only,8,17,rt849173,280,defect,4
1234,4,behavior_only,8,17,rt917261,1034,defect,4
1234,4,behavior_only,8,17,rt337344,2031,defect,0
1234,4,behavior_only,8,17,rt865762,2853,defect,0
1234,4,behavior_only,8,17,rt153831,3460,defect,0
1234,4,behavior_only,8,17,rt739245,4145,defect,0
1234,4,behavior_only,8,17,rt876556,5278,defect,4
1234,4,behavior_only,8,17,rt525137,6055,defect,4
1234,4,behavior_only,8,17,rt919080,6464,cooperate,-4
1234,4,behavior_only,8,17,rt310524,6982,defect,4
1234,4,behavior_only,8,17,rt845286,7116,defect,4
1234,4,behavior_only,8,17,rt592001,7523,defect,0
1234,4,behavior_only,8,17,rt712233,8516,defect,0
1234,4,behavior_only,8,17,rt671551,8927,defect,0
1234,4,behavior_only,8,17,rt217519,9098,defect,4
1234,4,behavior_only,8,17,rt819651,9280,defect,4
1234,4,behavior_only,9,17,rt612233,87,cooperate,0
1234,4,behavior_only,9,17,rt849173,280,defect,8
1234,4,behavior_only,9,17,rt917261,1034,cooperate,4
1234,4,behavior_only,9,17,rt337344,2031,defect,12
1234,4,behavior_only,9,17,rt865762,2853,cooperate,4
1234,4,behavior_only,9,17,rt153831,3460,cooperate,0
1234,4,behavior_only,9,17,rt739245,4145,defect,8
1234,4,behavior_only,9,17,rt876556,5278,defect,4
1234,4,behavior_only,9,17,rt525137,6055,defect,0
1234,4,behavior_only,9,17,rt919080,6464,defect,0
1234,4,behavior_only,9,17,rt310524,6982,defect,0
1234,4,behavior_only,9,17,rt845286,7116,defect,0
1234,4,behavior_only,9,17,rt592001,7523,defect,4
1234,4,behavior_only,9,17,rt712233,8516,defect,4
1234,4,behavior_only,9,17,rt671551,8927,cooperate,-4
1234,4,behavior_only,9,17,rt217519,9098,defect,8
1234,4,behavior_only,9,17,rt819651,9280,defect,8
1234,4,behavior_only,10,17,rt612233,87,defect,8
1234,4,behavior_only,10,17,rt849173,280,defect,4
1234,4,behavior_only,10,17,rt917261,1034,cooperate,0
1234,4,behavior_only,10,17,rt337344,2031,defect,8
1234,4,behavior_only,10,17,rt865762,2853,cooperate,0
1234,4,behavior_only,10,17,rt153831,3460,defect,4
1234,4,behavior_only,10,17,rt739245,4145,defect,4
1234,4,behavior_only,10,17,rt876556,5278,defect,0
1234,4,behavior_only,10,17,rt525137,6055,defect,0
1234,4,behavior_only,10,17,rt919080,6464,defect,4
1234,4,behavior_only,10,17,rt310524,6982,defect,4
1234,4,behavior_only,10,17,rt845286,7116,cooperate,-4
1234,4,behavior_only,10,17,rt592001,7523,defect,8
1234,4,behavior_only,10,17,rt712233,8516,defect,12
1234,4,behavior_only,10,17,rt671551,8927,cooperate,0
1234,4,behavior_only,10,17,rt217519,9098,cooperate,0
1234,4,behavior_only,10,17,rt819651,9280,defect,8
1234,4,behavior_only,11,17,rt612233,87,defect,0
1234,4,behavior_only,11,17,rt849173,280,defect,0
1234,4,behavior_only,11,17,rt917261,1034,defect,0
1234,4,behavior_only,11,17,rt337344,2031,defect,0
1234,4,behavior_only,11,17,rt865762,2853,defect,0
1234,4,behavior_only,11,17,rt153831,3460,defect,0
1234,4,behavior_only,11,17,rt739245,4145,defect,4
1234,4,behavior_only,11,17,rt876556,5278,defect,4
1234,4,behavior_only,11,17,rt525137,6055,cooperate,-4
1234,4,behavior_only,11,17,rt919080,6464,defect,8
1234,4,behavior_only,11,17,rt310524,6982,defect,8
1234,4,behavior_only,11,17,rt845286,7116,cooperate,-4
1234,4,behavior_only,11,17,rt592001,7523,defect,8
1234,4,behavior_only,11,17,rt712233,8516,defect,8
1234,4,behavior_only,11,17,rt671551,8927,cooperate,-4
1234,4,behavior_only,11,17,rt217519,9098,defect,4
1234,4,behavior_only,11,17,rt819651,9280,defect,4
1234,4,behavior_only,12,17,rt612233,87,defect,4
1234,4,behavior_only,12,17,rt849173,280,defect,4
1234,4,behavior_only,12,17,rt917261,1034,cooperate,-4
1234,4,behavior_only,12,17,rt337344,2031,defect,8
1234,4,behavior_only,12,17,rt865762,2853,defect,8
1234,4,behavior_only,12,17,rt153831,3460,cooperate,-4
1234,4,behavior_only,12,17,rt739245,4145,defect,4
1234,4,behavior_only,12,17,rt876556,5278,defect,4
1234,4,behavior_only,12,17,rt525137,6055,defect,0
1234,4,behavior_only,12,17,rt919080,6464,defect,4
1234,4,behavior_only,12,17,rt310524,6982,defect,4
1234,4,behavior_only,12,17,rt845286,7116,cooperate,-4
1234,4,behavior_only,12,17,rt592001,7523,defect,8
1234,4,behavior_only,12,17,rt712233,8516,defect,8
1234,4,behavior_only,12,17,rt671551,8927,cooperate,-4
1234,4,behavior_only,12,17,rt217519,9098,defect,4
1234,4,behavior_only,12,17,rt819651,9280,defect,4
1234,4,behavior_only,13,17,rt612233,87,defect,4
1234,4,behavior_only,13,17,rt849173,280,defect,4
1234,4,behavior_only,13,17,rt917261,1034,cooperate,0
1234,4,behavior_only,13,17,rt337344,2031,defect,12
1234,4,behavior_only,13,17,rt865762,2853,cooperate,4
1234,4,behavior_only,13,17,rt153831,3460,cooperate,0
1234,4,behavior_only,13,17,rt739245,4145,defect,8
1234,4,behavior_only,13,17,rt876556,5278,defect,8
1234,4,behavior_only,13,17,rt525137,6055,defect,4
1234,4,behavior_only,13,17,rt919080,6464,cooperate,0
1234,4,behavior_only,13,17,rt310524,6982,defect,8
1234,4,behavior_only,13,17,rt845286,7116,cooperate,0
1234,4,behavior_only,13,17,rt592001,7523,defect,8
1234,4,behavior_only,13,17,rt712233,8516,defect,8
1234,4,behavior_only,13,17,rt671551,8927,cooperate,-4
1234,4,behavior_only,13,17,rt217519,9098,defect,4
1234,4,behavior_only,13,17,rt819651,9280,defect,4
1234,4,behavior_only,14,17,rt612233,87,cooperate,0
1234,4,behavior_only,14,17,rt849173,280,defect,8
1234,4,behavior_only,14,17,rt917261,1034,cooperate,0
1234,4,behavior_only,14,17,rt337344,2031,defect,8
1234,4,behavior_only,14,17,rt865762,2853,defect,8
1234,4,behavior_only,14,17,rt153831,3460,cooperate,-4
1234,4,behavior_only,14,17,rt739245,4145,defect,4
1234,4,behavior_only,14,17,rt876556,5278,defect,4
1234,4,behavior_only,14,17,rt525137,6055,defect,0
1234,4,behavior_only,14,17,rt919080,6464,defect,4
1234,4,behavior_only,14,17,rt310524,6982,defect,8
1234,4,behavior_only,14,17,rt845286,7116,cooperate,0
1234,4,behavior_only,14,17,rt592001,7523,cooperate,4
1234,4,behavior_only,14,17,rt712233,8516,defect,12
1234,4,behavior_only,14,17,rt671551,8927,cooperate,0
1234,4,behavior_only,14,17,rt217519,9098,defect,8
1234,4,behavior_only,14,17,rt819651,9280,defect,8
1234,4,behavior_only,15,17,rt612233,87,cooperate,0
1234,4,behavior_only,15,17,rt849173,280,defect,8
1234,4,behavior_only,15,17,rt917261,1034,cooperate,0
1234,4,behavior_only,15,17,rt337344,2031,defect,8
1234,4,behavior_only,15,17,rt865762,2853,defect,8
1234,4,behavior_only,15,17,rt153831,3460,cooperate,-4
1234,4,behavior_only,15,17,rt739245,4145,defect,4
1234,4,behavior_only,15,17,rt876556,5278,defect,4
1234,4,behavior_only,15,17,rt525137,6055,defect,0
1234,4,behavior_only,15,17,rt919080,6464,defect,4
1234,4,behavior_only,15,17,rt310524,6982,defect,8
1234,4,behavior_only,15,17,rt845286,7116,cooperate,0
1234,4,behavior_only,15,17,rt592001,7523,cooperate,4
1234,4,behavior_only,15,17,rt712233,8516,defect,12
1234,4,behavior_only,15,17,rt671551,8927,cooperate,0
1234,4,behavior_only,15,17,rt217519,9098,defect,8
1234,4,behavior_only,15,17,rt819651,9280,defect,8
1234,4,full_information,1,17,rt337344,429,defect,0
1234,4,full_information,1,17,rt525137,1017,defect,0
1234,4,full_information,1,17,rt819651,2567,defect,0
1234,4,full_information,1,17,rt592001,3342,defect,0
1234,4,full_information,1,17,rt876556,3516,defect,4
1234,4,full_information,1,17,rt849173,4279,defect,4
1234,4,full_information,1,17,rt153831,4838,cooperate,-4
1234,4,full_information,1,17,rt917261,5584,defect,4
1234,4,full_information,1,17,rt739245,5652,defect,4
1234,4,full_information,1,17,rt217519,6006,defect,0
1234,4,full_information,1,17,rt919080,6066,defect,0
1234,4,full_information,1,17,rt310524,6099,defect,4
1234,4,full_information,1,17,rt865762,6247,defect,8
1234,4,full_information,1,17,rt612233,6827,cooperate,0
1234,4,full_information,1,17,rt671551,8668,cooperate,0
1234,4,full_information,1,17,rt845286,9057,defect,8
1234,4,full_information,1,17,rt712233,9153,defect,4
1234,4,full_information,2,17,rt337344,429,cooperate,0
1234,4,full_information,2,17,rt525137,1017,defect,8
1234,4,full_information,2,17,rt819651,2567,defect,8
1234,4,full_information,2,17,rt592001,3342,cooperate,-4
1234,4,full_information,2,17,rt876556,3516,defect,8
1234,4,full_information,2,17,rt849173,4279,defect,12
1234,4,full_information,2,17,rt153831,4838,cooperate,0
1234,4,full_information,2,17,rt917261,5584,cooperate,0
1234,4,full_information,2,17,rt739245,5652,defect,12
1234,4,full_information,2,17,rt217519,6006,defect,8
1234,4,full_information,2,17,rt919080,6066,cooperate,-4
1234,4,full_information,2,17,rt310524,6099,defect,4
1234,4,full_information,2,17,rt865762,6247,defect,8
1234,4,full_information,2,17,rt612233,6827,defect,8
1234,4,full_information,2,17,rt671551,8668,cooperate,0
1234,4,full_information,2,17,rt845286,9057,cooperate,4
1234,4,full_information,2,17,rt712233,9153,defect,12
1234,4,full_information,3,17,rt337344,429,defect,8
1234,4,full_information,3,17,rt525137,1017,defect,8
1234,4,full_information,3,17,rt819651,2567,cooperate,0
1234,4,full_information,3,17,rt592001,3342,cooperate,0
1234,4,full_information,3,17,rt876556,3516,defect,8
1234,4,full_information,3,17,rt849173,4279,defect,8
1234,4,full_information,3,17,rt153831,4838,defect,4
1234,4,full_information,3,17,rt917261,5584,cooperate,-4
1234,4,full_information,3,17,rt739245,5652,defect,4
1234,4,full_information,3,17,rt217519,6006,None,4
1234,4,full_information,3,17,rt919080,6066,defect,4
1234,4,full_information,3,17,rt310524,6099,defect,4
1234,4,full_information,3,17,rt865762,6247,cooperate,0
1234,4,full_information,3,17,rt612233,6827,defect,12
1234,4,full_information,3,17,rt671551,8668,cooperate,4
1234,4,full_information,3,17,rt845286,9057,cooperate,0
1234,4,full_information,3,17,rt712233,9153,defect,8
1234,4,full_information,4,17,rt337344,429,defect,4
1234,4,full_information,4,17,rt525137,1017,defect,4
1234,4,full_information,4,17,rt819651,2567,defect,4
1234,4,full_information,4,17,rt592001,3342,cooperate,-4
1234,4,full_information,4,17,rt876556,3516,defect,4
1234,4,full_information,4,17,rt849173,4279,defect,4
1234,4,full_information,4,17,rt153831,4838,defect,0
1234,4,full_information,4,17,rt917261,5584,defect,0
1234,4,full_information,4,17,rt739245,5652,defect,0
1234,4,full_information,4,17,rt217519,6006,None,0
1234,4,full_information,4,17,rt919080,6066,defect,0
1234,4,full_information,4,17,rt310524,6099,defect,4
1234,4,full_information,4,17,rt865762,6247,defect,8
1234,4,full_information,4,17,rt612233,6827,cooperate,4
1234,4,full_information,4,17,rt671551,8668,cooperate,4
1234,4,full_information,4,17,rt845286,9057,cooperate,4
1234,4,full_information,4,17,rt712233,9153,defect,8
1234,4,full_information,5,17,rt337344,429,defect,4
1234,4,full_information,5,17,rt525137,1017,defect,4
1234,4,full_information,5,17,rt819651,2567,defect,4
1234,4,full_information,5,17,rt592001,3342,cooperate,-4
1234,4,full_information,5,17,rt876556,3516,defect,4
1234,4,full_information,5,17,rt849173,4279,defect,8
1234,4,full_information,5,17,rt153831,4838,defect,4
1234,4,full_information,5,17,rt917261,5584,cooperate,-4
1234,4,full_information,5,17,rt739245,5652,defect,4
1234,4,full_information,5,17,rt217519,6006,None,4
1234,4,full_information,5,17,rt919080,6066,defect,0
1234,4,full_information,5,17,rt310524,6099,defect,4
1234,4,full_information,5,17,rt865762,6247,defect,8
1234,4,full_information,5,17,rt612233,6827,cooperate,4
1234,4,full_information,5,17,rt671551,8668,cooperate,4
1234,4,full_information,5,17,rt845286,9057,cooperate,4
1234,4,full_information,5,17,rt712233,9153,defect,8
1234,4,full_information,6,17,rt337344,429,defect,4
1234,4,full_information,6,17,rt525137,1017,defect,0
1234,4,full_information,6,17,rt819651,2567,defect,0
1234,4,full_information,6,17,rt592001,3342,defect,0
1234,4,full_information,6,17,rt876556,3516,defect,0
1234,4,full_information,6,17,rt849173,4279,defect,4
1234,4,full_information,6,17,rt153831,4838,defect,4
1234,4,full_information,6,17,rt917261,5584,cooperate,-4
1234,4,full_information,6,17,rt739245,5652,defect,4
1234,4,full_information,6,17,rt217519,6006,None,4
1234,4,full_information,6,17,rt919080,6066,defect,4
1234,4,full_information,6,17,rt310524,6099,defect,8
1234,4,full_information,6,17,rt865762,6247,cooperate,4
1234,4,full_information,6,17,rt612233,6827,cooperate,8
1234,4,full_information,6,17,rt671551,8668,cooperate,8
1234,4,full_information,6,17,rt845286,9057,cooperate,4
1234,4,full_information,6,17,rt712233,9153,defect,8
1234,4,full_information,7,17,rt337344,429,defect,0
1234,4,full_information,7,17,rt525137,1017,defect,4
1234,4,full_information,7,17,rt819651,2567,defect,4
1234,4,full_information,7,17,rt592001,3342,cooperate,-4
1234,4,full_information,7,17,rt876556,3516,defect,4
1234,4,full_information,7,17,rt849173,4279,defect,4
1234,4,full_information,7,17,rt153831,4838,defect,0
1234,4,full_information,7,17,rt917261,5584,defect,0
1234,4,full_information,7,17,rt739245,5652,defect,0
1234,4,full_information,7,17,rt217519,6006,None,0
1234,4,full_information,7,17,rt919080,6066,defect,0
1234,4,full_information,7,17,rt310524,6099,defect,4
1234,4,full_information,7,17,rt865762,6247,defect,8
1234,4,full_information,7,17,rt612233,6827,cooperate,0
1234,4,full_information,7,17,rt671551,8668,cooperate,0
1234,4,full_information,7,17,rt845286,9057,defect,8
1234,4,full_information,7,17,rt712233,9153,defect,4
1234,4,full_information,8,17,rt337344,429,defect,4
1234,4,full_information,8,17,rt525137,1017,defect,4
1234,4,full_information,8,17,rt819651,2567,defect,4
1234,4,full_information,8,17,rt592001,3342,cooperate,-4
1234,4,full_information,8,17,rt876556,3516,defect,4
1234,4,full_information,8,17,rt849173,4279,defect,4
1234,4,full_information,8,17,rt153831,4838,defect,0
1234,4,full_information,8,17,rt917261,5584,defect,0
1234,4,full_information,8,17,rt739245,5652,defect,0
1234,4,full_information,8,17,rt217519,6006,None,0
1234,4,full_information,8,17,rt919080,6066,defect,4
1234,4,full_information,8,17,rt310524,6099,defect,8
1234,4,full_information,8,17,rt865762,6247,cooperate,4
1234,4,full_information,8,17,rt612233,6827,cooperate,8
1234,4,full_information,8,17,rt671551,8668,cooperate,8
1234,4,full_information,8,17,rt845286,9057,cooperate,4
1234,4,full_information,8,17,rt712233,9153,defect,8
1234,4,full_information,9,17,rt337344,429,defect,0
1234,4,full_information,9,17,rt525137,1017,defect,4
1234,4,full_information,9,17,rt819651,2567,defect,4
1234,4,full_information,9,17,rt592001,3342,cooperate,-4
1234,4,full_information,9,17,rt876556,3516,defect,4
1234,4,full_information,9,17,rt849173,4279,defect,8
1234,4,full_information,9,17,rt153831,4838,defect,4
1234,4,full_information,9,17,rt917261,5584,cooperate,-4
1234,4,full_information,9,17,rt739245,5652,defect,4
1234,4,full_information,9,17,rt217519,6006,None,4
1234,4,full_information,9,17,rt919080,6066,defect,0
1234,4,full_information,9,17,rt310524,6099,defect,4
1234,4,full_information,9,17,rt865762,6247,defect,8
1234,4,full_information,9,17,rt612233,6827,cooperate,0
1234,4,full_information,9,17,rt671551,8668,cooperate,0
1234,4,full_information,9,17,rt845286,9057,defect,8
1234,4,full_information,9,17,rt712233,9153,defect,4
1234,4,full_information,10,17,rt337344,429,defect,0
1234,4,full_information,10,17,rt525137,1017,defect,0
1234,4,full_information,10,17,rt819651,2567,defect,0
1234,4,full_information,10,17,rt592001,3342,defect,0
1234,4,full_information,10,17,rt876556,3516,defect,0
1234,4,full_information,10,17,rt849173,4279,defect,0
1234,4,full_information,10,17,rt153831,4838,defect,0
1234,4,full_information,10,17,rt917261,5584,defect,0
1234,4,full_information,10,17,rt739245,5652,defect,0
1234,4,full_information,10,17,rt217519,6006,None,0
1234,4,full_information,10,17,rt919080,6066,defect,4
1234,4,full_information,10,17,rt310524,6099,defect,4
1234,4,full_information,10,17,rt865762,6247,cooperate,0
1234,4,full_information,10,17,rt612233,6827,defect,8
1234,4,full_information,10,17,rt671551,8668,cooperate,0
1234,4,full_information,10,17,rt845286,9057,defect,4
1234,4,full_information,10,17,rt712233,9153,defect,4
1234,4,full_information,11,17,rt337344,429,defect,4
1234,4,full_information,11,17,rt525137,1017,defect,4
1234,4,full_information,11,17,rt819651,2567,defect,4
1234,4,full_information,11,17,rt592001,3342,cooperate,-4
1234,4,full_information,11,17,rt876556,3516,defect,4
1234,4,full_information,11,17,rt849173,4279,defect,8
1234,4,full_information,11,17,rt153831,4838,defect,4
1234,4,full_information,11,17,rt917261,5584,cooperate,-4
1234,4,full_information,11,17,rt739245,5652,defect,4
1234,4,full_information,11,17,rt217519,6006,None,4
1234,4,full_information,11,17,rt919080,6066,defect,0
1234,4,full_information,11,17,rt310524,6099,defect,0
1234,4,full_information,11,17,rt865762,6247,defect,4
1234,4,full_information,11,17,rt612233,6827,defect,8
1234,4,full_information,11,17,rt671551,8668,cooperate,0
1234,4,full_information,11,17,rt845286,9057,cooperate,0
1234,4,full_information,11,17,rt712233,9153,defect,8
1234,4,full_information,12,17,rt337344,429,cooperate,-4
1234,4,full_information,12,17,rt525137,1017,defect,4
1234,4,full_information,12,17,rt819651,2567,defect,4
1234,4,full_information,12,17,rt592001,3342,defect,0
1234,4,full_information,12,17,rt876556,3516,defect,4
1234,4,full_information,12,17,rt849173,4279,defect,8
1234,4,full_information,12,17,rt153831,4838,cooperate,0
1234,4,full_information,12,17,rt917261,5584,cooperate,0
1234,4,full_information,12,17,rt739245,5652,defect,12
1234,4,full_information,12,17,rt217519,6006,None,8
1234,4,full_information,12,17,rt919080,6066,cooperate,0
1234,4,full_information,12,17,rt310524,6099,defect,8
1234,4,full_information,12,17,rt865762,6247,cooperate,4
1234,4,full_information,12,17,rt612233,6827,defect,8
1234,4,full_information,12,17,rt671551,8668,cooperate,0
1234,4,full_information,12,17,rt845286,9057,defect,8
1234,4,full_information,12,17,rt712233,9153,defect,8
1234,4,full_information,13,17,rt337344,429,defect,4
1234,4,full_information,13,17,rt525137,1017,defect,0
1234,4,full_information,13,17,rt819651,2567,defect,0
1234,4,full_information,13,17,rt592001,3342,defect,0
1234,4,full_information,13,17,rt876556,3516,defect,4
1234,4,full_information,13,17,rt849173,4279,defect,8
1234,4,full_information,13,17,rt153831,4838,cooperate,0
1234,4,full_information,13,17,rt917261,5584,cooperate,0
1234,4,full_information,13,17,rt739245,5652,defect,12
1234,4,full_information,13,17,rt217519,6006,None,8
1234,4,full_information,13,17,rt919080,6066,cooperate,0
1234,4,full_information,13,17,rt310524,6099,defect,8
1234,4,full_information,13,17,rt865762,6247,cooperate,4
1234,4,full_information,13,17,rt612233,6827,defect,12
1234,4,full_information,13,17,rt671551,8668,cooperate,4
1234,4,full_information,13,17,rt845286,9057,cooperate,0
1234,4,full_information,13,17,rt712233,9153,defect,8
1234,4,full_information,14,17,rt337344,429,defect,4
1234,4,full_information,14,17,rt525137,1017,defect,0
1234,4,full_information,14,17,rt819651,2567,defect,0
1234,4,full_information,14,17,rt592001,3342,defect,0
1234,4,full_information,14,17,rt876556,3516,defect,0
1234,4,full_information,14,17,rt849173,4279,defect,0
1234,4,full_information,14,17,rt153831,4838,defect,0
1234,4,full_information,14,17,rt917261,5584,defect,0
1234,4,full_information,14,17,rt739245,5652,defect,0
1234,4,full_information,14,17,rt217519,6006,None,0
1234,4,full_information,14,17,rt919080,6066,defect,0
1234,4,full_information,14,17,rt310524,6099,defect,0
1234,4,full_information,14,17,rt865762,6247,defect,4
1234,4,full_information,14,17,rt612233,6827,defect,8
1234,4,full_information,14,17,rt671551,8668,cooperate,0
1234,4,full_information,14,17,rt845286,9057,cooperate,0
1234,4,full_information,14,17,rt712233,9153,defect,8
1234,4,full_information,15,17,rt337344,429,defect,0
1234,4,full_information,15,17,rt525137,1017,defect,4
1234,4,full_information,15,17,rt819651,2567,defect,4
1234,4,full_information,15,17,rt592001,3342,cooperate,-4
1234,4,full_information,15,17,rt876556,3516,defect,4
1234,4,full_information,15,17,rt849173,4279,defect,4
1234,4,full_information,15,17,rt153831,4838,defect,0
1234,4,full_information,15,17,rt917261,5584,defect,0
1234,4,full_information,15,17,rt739245,5652,defect,4
1234,4,full_information,15,17,rt217519,6006,None,4
1234,4,full_information,15,17,rt919080,6066,cooperate,-4
1234,4,full_information,15,17,rt310524,6099,defect,8
1234,4,full_information,15,17,rt865762,6247,defect,12
1234,4,full_information,15,17,rt612233,6827,cooperate,0
1234,4,full_information,15,17,rt671551,8668,cooperate,0
1234,4,full_information,15,17,rt845286,9057,defect,8
1234,4,full_information,15,17,rt712233,9153,defect,4
1234,4,summary_information,1,17,rt917261,83,cooperate,-4
1234,4,summary_information,1,17,rt739245,217,defect,4
1234,4,summary_information,1,17,rt819651,1565,defect,4
1234,4,summary_information,1,17,rt876556,1898,defect,0
1234,4,summary_information,1,17,rt849173,2685,defect,0
1234,4,summary_information,1,17,rt671551,2897,defect,0
1234,4,summary_information,1,17,rt153831,4452,defect,0
1234,4,summary_information,1,17,rt845286,4699,defect,0
1234,4,summary_information,1,17,rt217519,5032,defect,0
1234,4,summary_information,1,17,rt919080,5526,defect,0
1234,4,summary_information,1,17,rt865762,5909,defect,0
1234,4,summary_information,1,17,rt712233,6120,defect,0
1234,4,summary_information,1,17,rt337344,6411,defect,0
1234,4,summary_information,1,17,rt612233,7171,defect,0
1234,4,summary_information,1,17,rt525137,7443,defect,0
1234,4,summary_information,1,17,rt592001,7530,defect,4
1234,4,summary_information,1,17,rt310524,8689,defect,4
1234,4,summary_information,2,17,rt917261,83,cooperate,0
1234,4,summary_information,2,17,rt739245,217,defect,4
1234,4,summary_information,2,17,rt819651,1565,defect,4
1234,4,summary_information,2,17,rt876556,1898,defect,4
1234,4,summary_information,2,17,rt849173,2685,defect,4
1234,4,summary_information,2,17,rt671551,2897,cooperate,-4
1234,4,summary_information,2,17,rt153831,4452,defect,4
1234,4,summary_information,2,17,rt845286,4699,defect,4
1234,4,summary_information,2,17,rt217519,5032,defect,0
1234,4,summary_information,2,17,rt919080,5526,defect,0
1234,4,summary_information,2,17,rt865762,5909,defect,0
1234,4,summary_information,2,17,rt712233,6120,defect,0
1234,4,summary_information,2,17,rt337344,6411,defect,0
1234,4,summary_information,2,17,rt612233,7171,defect,4
1234,4,summary_information,2,17,rt525137,7443,defect,4
1234,4,summary_information,2,17,rt592001,7530,cooperate,0
1234,4,summary_information,2,17,rt310524,8689,defect,8
1234,4,summary_information,3,17,rt917261,83,defect,0
1234,4,summary_information,3,17,rt739245,217,defect,0
1234,4,summary_information,3,17,rt819651,1565,defect,0
1234,4,summary_information,3,17,rt876556,1898,defect,4
1234,4,summary_information,3,17,rt849173,2685,defect,4
1234,4,summary_information,3,17,rt671551,2897,cooperate,-4
1234,4,summary_information,3,17,rt153831,4452,defect,4
1234,4,summary_information,3,17,rt845286,4699,defect,4
1234,4,summary_information,3,17,rt217519,5032,defect,4
1234,4,summary_information,3,17,rt919080,5526,defect,8
1234,4,summary_information,3,17,rt865762,5909,cooperate,0
1234,4,summary_information,3,17,rt712233,6120,cooperate,0
1234,4,summary_information,3,17,rt337344,6411,defect,12
1234,4,summary_information,3,17,rt612233,7171,defect,8
1234,4,summary_information,3,17,rt525137,7443,cooperate,-4
1234,4,summary_information,3,17,rt592001,7530,defect,4
1234,4,summary_information,3,17,rt310524,8689,defect,4
1234,4,summary_information,4,17,rt917261,83,cooperate,-4
1234,4,summary_information,4,17,rt739245,217,defect,4
1234,4,summary_information,4,17,rt819651,1565,defect,4
1234,4,summary_information,4,17,rt876556,1898,defect,4
1234,4,summary_information,4,17,rt849173,2685,defect,8
1234,4,summary_information,4,17,rt671551,2897,cooperate,4
1234,4,summary_information,4,17,rt153831,4452,cooperate,4
1234,4,summary_information,4,17,rt845286,4699,cooperate,4
1234,4,summary_information,4,17,rt217519,5032,defect,12
1234,4,summary_information,4,17,rt919080,5526,defect,8
1234,4,summary_information,4,17,rt865762,5909,cooperate,-4
1234,4,summary_information,4,17,rt712233,6120,defect,4
1234,4,summary_information,4,17,rt337344,6411,defect,4
1234,4,summary_information,4,17,rt612233,7171,defect,0
1234,4,summary_information,4,17,rt525137,7443,defect,0
1234,4,summary_information,4,17,rt592001,7530,defect,4
1234,4,summary_information,4,17,rt310524,8689,defect,4
1234,4,summary_information,5,17,rt917261,83,defect,4
1234,4,summary_information,5,17,rt739245,217,defect,0
1234,4,summary_information,5,17,rt819651,1565,defect,0
1234,4,summary_information,5,17,rt876556,1898,defect,4
1234,4,summary_information,5,17,rt849173,2685,defect,8
1234,4,summary_information,5,17,rt671551,2897,cooperate,4
1234,4,summary_information,5,17,rt153831,4452,cooperate,4
1234,4,summary_information,5,17,rt845286,4699,cooperate,4
1234,4,summary_information,5,17,rt217519,5032,defect,12
1234,4,summary_information,5,17,rt919080,5526,defect,8
1234,4,summary_information,5,17,rt865762,5909,cooperate,-4
1234,4,summary_information,5,17,rt712233,6120,defect,4
1234,4,summary_information,5,17,rt337344,6411,defect,4
1234,4,summary_information,5,17,rt612233,7171,defect,4
1234,4,summary_information,5,17,rt525137,7443,defect,4
1234,4,summary_information,5,17,rt592001,7530,cooperate,-4
1234,4,summary_information,5,17,rt310524,8689,defect,4
1234,4,summary_information,6,17,rt917261,83,defect,4
1234,4,summary_information,6,17,rt739245,217,defect,4
1234,4,summary_information,6,17,rt819651,1565,defect,4
1234,4,summary_information,6,17,rt876556,1898,cooperate,0
1234,4,summary_information,6,17,rt849173,2685,defect,12
1234,4,summary_information,6,17,rt671551,2897,cooperate,4
1234,4,summary_information,6,17,rt153831,4452,cooperate,0
1234,4,summary_information,6,17,rt845286,4699,defect,8
1234,4,summary_information,6,17,rt217519,5032,defect,4
1234,4,summary_information,6,17,rt919080,5526,defect,0
1234,4,summary_information,6,17,rt865762,5909,defect,0
1234,4,summary_information,6,17,rt712233,6120,defect,0
1234,4,summary_information,6,17,rt337344,6411,defect,0
1234,4,summary_information,6,17,rt612233,7171,defect,4
1234,4,summary_information,6,17,rt525137,7443,defect,4
1234,4,summary_information,6,17,rt592001,7530,cooperate,-4
1234,4,summary_information,6,17,rt310524,8689,defect,4
1234,4,summary_information,7,17,rt917261,83,defect,4
1234,4,summary_information,7,17,rt739245,217,defect,4
1234,4,summary_information,7,17,rt819651,1565,defect,4
1234,4,summary_information,7,17,rt876556,1898,cooperate,0
1234,4,summary_information,7,17,rt849173,2685,defect,8
1234,4,summary_information,7,17,rt671551,2897,cooperate,4
1234,4,summary_information,7,17,rt153831,4452,defect,8
1234,4,summary_information,7,17,rt845286,4699,cooperate,0
1234,4,summary_information,7,17,rt217519,5032,defect,4
1234,4,summary_information,7,17,rt919080,5526,defect,4
1234,4,summary_information,7,17,rt865762,5909,defect,0
1234,4,summary_information,7,17,rt712233,6120,defect,0
1234,4,summary_information,7,17,rt337344,6411,defect,0
1234,4,summary_information,7,17,rt612233,7171,defect,4
1234,4,summary_information,7,17,rt525137,7443,defect,4
1234,4,summary_information,7,17,rt592001,7530,cooperate,-4
1234,4,summary_information,7,17,rt310524,8689,defect,4
1234,4,summary_information,8,17,rt917261,83,cooperate,-4
1234,4,summary_information,8,17,rt739245,217,defect,8
1234,4,summary_information,8,17,rt819651,1565,defect,8
1234,4,summary_information,8,17,rt876556,1898,cooperate,0
1234,4,summary_information,8,17,rt849173,2685,defect,12
1234,4,summary_information,8,17,rt671551,2897,cooperate,8
1234,4,summary_information,8,17,rt153831,4452,cooperate,8
1234,4,summary_information,8,17,rt845286,4699,cooperate,8
1234,4,summary_information,8,17,rt217519,5032,cooperate,4
1234,4,summary_information,8,17,rt919080,5526,defect,12
1234,4,summary_information,8,17,rt865762,5909,defect,8
1234,4,summary_information,8,17,rt712233,6120,cooperate,-4
1234,4,summary_information,8,17,rt337344,6411,defect,4
1234,4,summary_information,8,17,rt612233,7171,defect,4
1234,4,summary_information,8,17,rt525137,7443,defect,0
1234,4,summary_information,8,17,rt592001,7530,defect,4
1234,4,summary_information,8,17,rt310524,8689,defect,4
1234,4,summary_information,9,17,rt917261,83,cooperate,0
1234,4,summary_information,9,17,rt739245,217,defect,4
1234,4,summary_information,9,17,rt819651,1565,defect,4
1234,4,summary_information,9,17,rt876556,1898,defect,4
1234,4,summary_information,9,17,rt849173,2685,defect,8
1234,4,summary_information,9,17,rt671551,2897,cooperate,4
1234,4,summary_information,9,17,rt153831,4452,cooperate,4
1234,4,summary_information,9,17,rt845286,4699,cooperate,4
1234,4,summary_information,9,17,rt217519,5032,defect,12
1234,4,summary_information,9,17,rt919080,5526,defect,12
1234,4,summary_information,9,17,rt865762,5909,cooperate,0
1234,4,summary_information,9,17,rt712233,6120,cooperate,0
1234,4,summary_information,9,17,rt337344,6411,defect,8
1234,4,summary_information,9,17,rt612233,7171,defect,8
1234,4,summary_information,9,17,rt525137,7443,defect,4
1234,4,summary_information,9,17,rt592001,7530,cooperate,0
1234,4,summary_information,9,17,rt310524,8689,defect,8
1234,4,summary_information,10,17,rt917261,83,defect,4
1234,4,summary_information,10,17,rt739245,217,defect,0
1234,4,summary_information,10,17,rt819651,1565,defect,0
1234,4,summary_information,10,17,rt876556,1898,defect,4
1234,4,summary_information,10,17,rt849173,2685,defect,8
1234,4,summary_information,10,17,rt671551,2897,cooperate,0
1234,4,summary_information,10,17,rt153831,4452,cooperate,0
1234,4,summary_information,10,17,rt845286,4699,defect,8
1234,4,summary_information,10,17,rt217519,5032,defect,8
1234,4,summary_information,10,17,rt919080,5526,defect,8
1234,4,summary_information,10,17,rt865762,5909,cooperate,0
1234,4,summary_information,10,17,rt712233,6120,cooperate,0
1234,4,summary_information,10,17,rt337344,6411,defect,8
1234,4,summary_information,10,17,rt612233,7171,defect,8
1234,4,summary_information,10,17,rt525137,7443,defect,4
1234,4,summary_information,10,17,rt592001,7530,cooperate,-4
1234,4,summary_information,10,17,rt310524,8689,defect,4
1234,4,summary_information,11,17,rt917261,83,cooperate,-4
1234,4,summary_information,11,17,rt739245,217,defect,4
1234,4,summary_information,11,17,rt819651,1565,defect,4
1234,4,summary_information,11,17,rt876556,1898,defect,4
1234,4,summary_information,11,17,rt849173,2685,defect,4
1234,4,summary_information,11,17,rt671551,2897,cooperate,0
1234,4,summary_information,11,17,rt153831,4452,defect,8
1234,4,summary_information,11,17,rt845286,4699,cooperate,0
1234,4,summary_information,11,17,rt217519,5032,defect,4
1234,4,summary_information,11,17,rt919080,5526,defect,8
1234,4,summary_information,11,17,rt865762,5909,defect,4
1234,4,summary_information,11,17,rt712233,6120,cooperate,-4
1234,4,summary_information,11,17,rt337344,6411,defect,4
1234,4,summary_information,11,17,rt612233,7171,defect,4
1234,4,summary_information,11,17,rt525137,7443,defect,0
1234,4,summary_information,11,17,rt592001,7530,defect,4
1234,4,summary_information,11,17,rt310524,8689,defect,4
1234,4,summary_information,12,17,rt917261,83,defect,0
1234,4,summary_information,12,17,rt739245,217,defect,0
1234,4,summary_information,12,17,rt819651,1565,defect,0
1234,4,summary_information,12,17,rt876556,1898,defect,4
1234,4,summary_information,12,17,rt849173,2685,defect,8
1234,4,summary_information,12,17,rt671551,2897,cooperate,4
1234,4,summary_information,12,17,rt153831,4452,cooperate,8
1234,4,summary_information,12,17,rt845286,4699,cooperate,8
1234,4,summary_information,12,17,rt217519,5032,cooperate,4
1234,4,summary_information,12,17,rt919080,5526,defect,8
1234,4,summary_information,12,17,rt865762,5909,defect,4
1234,4,summary_information,12,17,rt712233,6120,defect,0
1234,4,summary_information,12,17,rt337344,6411,defect,0
1234,4,summary_information,12,17,rt612233,7171,defect,0
1234,4,summary_information,12,17,rt525137,7443,defect,0
1234,4,summary_information,12,17,rt592001,7530,defect,0
1234,4,summary_information,12,17,rt310524,8689,defect,0
1234,4,summary_information,13,17,rt917261,83,cooperate,-4
1234,4,summary_information,13,17,rt739245,217,defect,4
1234,4,summary_information,13,17,rt819651,1565,defect,4
1234,4,summary_information,13,17,rt876556,1898,defect,4
1234,4,summary_information,13,17,rt849173,2685,defect,8
1234,4,summary_information,13,17,rt671551,2897,cooperate,0
1234,4,summary_information,13,17,rt153831,4452,cooperate,0
1234,4,summary_information,13,17,rt845286,4699,defect,8
1234,4,summary_information,13,17,rt217519,5032,defect,8
1234,4,summary_information,13,17,rt919080,5526,defect,4
1234,4,summary_information,13,17,rt865762,5909,cooperate,-4
1234,4,summary_information,13,17,rt712233,6120,defect,4
1234,4,summary_information,13,17,rt337344,6411,defect,4
1234,4,summary_information,13,17,rt612233,7171,defect,0
1234,4,summary_information,13,17,rt525137,7443,defect,0
1234,4,summary_information,13,17,rt592001,7530,defect,4
1234,4,summary_information,13,17,rt310524,8689,defect,4
1234,4,summary_information,14,17,rt917261,83,defect,4
1234,4,summary_information,14,17,rt739245,217,defect,0
1234,4,summary_information,14,17,rt819651,1565,defect,0
1234,4,summary_information,14,17,rt876556,1898,defect,4
1234,4,summary_information,14,17,rt849173,2685,defect,4
1234,4,summary_information,14,17,rt671551,2897,cooperate,-4
1234,4,summary_information,14,17,rt153831,4452,defect,4
1234,4,summary_information,14,17,rt845286,4699,defect,4
1234,4,summary_information,14,17,rt217519,5032,defect,0
1234,4,summary_information,14,17,rt919080,5526,defect,0
1234,4,summary_information,14,17,rt865762,5909,defect,0
1234,4,summary_information,14,17,rt712233,6120,defect,0
1234,4,summary_information,14,17,rt337344,6411,defect,0
1234,4,summary_information,14,17,rt612233,7171,defect,4
1234,4,summary_information,14,17,rt525137,7443,defect,4
1234,4,summary_information,14,17,rt592001,7530,cooperate,-4
1234,4,summary_information,14,17,rt310524,8689,defect,4
1234,4,summary_information,15,17,rt917261,83,defect,4
1234,4,summary_information,15,17,rt739245,217,defect,0
1234,4,summary_information,15,17,rt819651,1565,defect,0
1234,4,summary_information,15,17,rt876556,1898,defect,0
1234,4,summary_information,15,17,rt849173,2685,defect,0
1234,4,summary_information,15,17,rt671551,2897,defect,4
1234,4,summary_information,15,17,rt153831,4452,defect,4
1234,4,summary_information,15,17,rt845286,4699,cooperate,-4
1234,4,summary_information,15,17,rt217519,5032,defect,4
1234,4,summary_information,15,17,rt919080,5526,defect,4
1234,4,summary_information,15,17,rt865762,5909,defect,0
1234,4,summary_information,15,17,rt712233,6120,defect,0
1234,4,summary_information,15,17,rt337344,6411,defect,0
1234,4,summary_information,15,17,rt612233,7171,defect,4
1234,4,summary_information,15,17,rt525137,7443,defect,4
1234,4,summary_information,15,17,rt592001,7530,cooperate,-4
1234,4,summary_information,15,17,rt310524,8689,defect,4
2162,4,full_information,1,11,rt308442,1380,defect,0
2162,4,full_information,1,11,rt136068,1883,defect,0
2162,4,full_information,1,11,rt410446,2303,defect,0
2162,4,full_information,1,11,rt715118,2493,defect,0
2162,4,full_information,1,11,rt639862,2668,defect,0
2162,4,full_information,1,11,rt667185,4443,defect,0
2162,4,full_information,1,11,rt883554,5734,defect,0
2162,4,full_information,1,11,rt738373,7483,defect,0
2162,4,full_information,1,11,rt376120,9371,defect,0
2162,4,full_information,1,11,rt502503,9875,defect,0
2162,4,full_information,1,11,rt548724,9968,defect,0
2162,4,full_information,2,11,rt308442,1380,defect,8
2162,4,full_information,2,11,rt136068,1883,defect,4
2162,4,full_information,2,11,rt410446,2303,defect,0
2162,4,full_information,2,11,rt715118,2493,defect,0
2162,4,full_information,2,11,rt639862,2668,defect,0
2162,4,full_information,2,11,rt667185,4443,defect,0
2162,4,full_information,2,11,rt883554,5734,defect,0
2162,4,full_information,2,11,rt738373,7483,defect,4
2162,4,full_information,2,11,rt376120,9371,defect,8
2162,4,full_information,2,11,rt502503,9875,cooperate,0
2162,4,full_information,2,11,rt548724,9968,cooperate,0
2162,4,full_information,3,11,rt308442,1380,defect,4
2162,4,full_information,3,11,rt136068,1883,cooperate,-4
2162,4,full_information,3,11,rt410446,2303,defect,8
2162,4,full_information,3,11,rt715118,2493,defect,8
2162,4,full_information,3,11,rt639862,2668,cooperate,0
2162,4,full_information,3,11,rt667185,4443,defect,8
2162,4,full_information,3,11,rt883554,5734,cooperate,0
2162,4,full_information,3,11,rt738373,7483,defect,4
2162,4,full_information,3,11,rt376120,9371,defect,4
2162,4,full_information,3,11,rt502503,9875,defect,0
2162,4,full_information,3,11,rt548724,9968,defect,4
2162,4,full_information,4,11,rt308442,1380,defect,8
2162,4,full_information,4,11,rt136068,1883,defect,8
2162,4,full_information,4,11,rt410446,2303,cooperate,-4
2162,4,full_information,4,11,rt715118,2493,defect,4
2162,4,full_information,4,11,rt639862,2668,defect,4
2162,4,full_information,4,11,rt667185,4443,defect,4
2162,4,full_information,4,11,rt883554,5734,defect,4
2162,4,full_information,4,11,rt738373,7483,cooperate,-4
2162,4,full_information,4,11,rt376120,9371,defect,8
2162,4,full_information,4,11,rt502503,9875,defect,8
2162,4,full_information,4,11,rt548724,9968,cooperate,-4
2162,4,full_information,5,11,rt308442,1380,defect,8
2162,4,full_information,5,11,rt136068,1883,defect,4
2162,4,full_information,5,11,rt410446,2303,cooperate,-4
2162,4,full_information,5,11,rt715118,2493,defect,4
2162,4,full_information,5,11,rt639862,2668,defect,8
2162,4,full_information,5,11,rt667185,4443,defect,4
2162,4,full_information,5,11,rt883554,5734,cooperate,-4
2162,4,full_information,5,11,rt738373,7483,defect,8
2162,4,full_information,5,11,rt376120,9371,defect,8
2162,4,full_information,5,11,rt502503,9875,cooperate,-4
2162,4,full_information,5,11,rt548724,9968,defect,4
2162,4,full_information,6,11,rt308442,1380,defect,0
2162,4,full_information,6,11,rt136068,1883,defect,0
2162,4,full_information,6,11,rt410446,2303,defect,0
2162,4,full_information,6,11,rt715118,2493,defect,0
2162,4,full_information,6,11,rt639862,2668,defect,0
2162,4,full_information,6,11,rt667185,4443,defect,0
2162,4,full_information,6,11,rt883554,5734,defect,0
2162,4,full_information,6,11,rt738373,7483,defect,0
2162,4,full_information,6,11,rt376120,9371,defect,0
2162,4,full_information,6,11,rt502503,9875,defect,0
2162,4,full_information,6,11,rt548724,9968,defect,0
2162,4,full_information,7,11,rt308442,1380,defect,8
2162,4,full_information,7,11,rt136068,1883,defect,4
2162,4,full_information,7,11,rt410446,2303,cooperate,-4
2162,4,full_information,7,11,rt715118,2493,defect,4
2162,4,full_information,7,11,rt639862,2668,defect,4
2162,4,full_information,7,11,rt667185,4443,defect,0
2162,4,full_information,7,11,rt883554,5734,defect,4
2162,4,full_information,7,11,rt738373,7483,defect,8
2162,4,full_information,7,11,rt376120,9371,cooperate,0
2162,4,full_information,7,11,rt502503,9875,cooperate,0
2162,4,full_information,7,11,rt548724,9968,defect,8
2162,4,full_information,8,11,rt308442,1380,defect,4
2162,4,full_information,8,11,rt136068,1883,defect,0
2162,4,full_information,8,11,rt410446,2303,defect,4
2162,4,full_information,8,11,rt715118,2493,defect,4
2162,4,full_information,8,11,rt639862,2668,cooperate,-4
2162,4,full_information,8,11,rt667185,4443,defect,4
2162,4,full_information,8,11,rt883554,5734,defect,4
2162,4,full_information,8,11,rt738373,7483,defect,4
2162,4,full_information,8,11,rt376120,9371,defect,4
2162,4,full_information,8,11,rt502503,9875,cooperate,-4
2162,4,full_information,8,11,rt548724,9968,defect,4
2162,4,full_information,9,11,rt308442,1380,defect,4
2162,4,full_information,9,11,rt136068,1883,defect,4
2162,4,full_information,9,11,rt410446,2303,cooperate,-4
2162,4,full_information,9,11,rt715118,2493,defect,4
2162,4,full_information,9,11,rt639862,2668,defect,4
2162,4,full_information,9,11,rt667185,4443,defect,0
2162,4,full_information,9,11,rt883554,5734,defect,0
2162,4,full_information,9,11,rt738373,7483,defect,0
2162,4,full_information,9,11,rt376120,9371,defect,0
2162,4,full_information,9,11,rt502503,9875,defect,0
2162,4,full_information,9,11,rt548724,9968,defect,0
2162,4,full_information,10,11,rt308442,1380,defect,4
2162,4,full_information,10,11,rt136068,1883,defect,4
2162,4,full_information,10,11,rt410446,2303,cooperate,-4
2162,4,full_information,10,11,rt715118,2493,defect,4
2162,4,full_information,10,11,rt639862,2668,defect,4
2162,4,full_information,10,11,rt667185,4443,defect,0
2162,4,full_information,10,11,rt883554,5734,defect,0
2162,4,full_information,10,11,rt738373,7483,defect,0
2162,4,full_information,10,11,rt376120,9371,defect,0
2162,4,full_information,10,11,rt502503,9875,defect,0
2162,4,full_information,10,11,rt548724,9968,defect,0
2162,4,full_information,11,11,rt308442,1380,defect,4
2162,4,full_information,11,11,rt136068,1883,defect,0
2162,4,full_information,11,11,rt410446,2303,defect,0
2162,4,full_information,11,11,rt715118,2493,defect,0
2162,4,full_information,11,11,rt639862,2668,defect,0
2162,4,full_information,11,11,rt667185,4443,defect,0
2162,4,full_information,11,11,rt883554,5734,defect,0
2162,4,full_information,11,11,rt738373,7483,defect,4
2162,4,full_information,11,11,rt376120,9371,defect,4
2162,4,full_information,11,11,rt502503,9875,cooperate,-4
2162,4,full_information,11,11,rt548724,9968,defect,4
2162,4,full_information,12,11,rt308442,1380,defect,0
2162,4,full_information,12,11,rt136068,1883,defect,0
2162,4,full_information,12,11,rt410446,2303,defect,0
2162,4,full_information,12,11,rt715118,2493,defect,0
2162,4,full_information,12,11,rt639862,2668,defect,0
2162,4,full_information,12,11,rt667185,4443,defect,0
2162,4,full_information,12,11,rt883554,5734,defect,4
2162,4,full_information,12,11,rt738373,7483,defect,4
2162,4,full_information,12,11,rt376120,9371,cooperate,-4
2162,4,full_information,12,11,rt502503,9875,defect,4
2162,4,full_information,12,11,rt548724,9968,defect,4
2162,4,full_information,13,11,rt308442,1380,defect,0
2162,4,full_information,13,11,rt136068,1883,defect,0
2162,4,full_information,13,11,rt410446,2303,defect,0
2162,4,full_information,13,11,rt715118,2493,defect,0
2162,4,full_information,13,11,rt639862,2668,defect,0
2162,4,full_information,13,11,rt667185,4443,defect,0
2162,4,full_information,13,11,rt883554,5734,defect,0
2162,4,full_information,13,11,rt738373,7483,defect,0
2162,4,full_information,13,11,rt376120,9371,defect,0
2162,4,full_information,13,11,rt502503,9875,defect,0
2162,4,full_information,13,11,rt548724,9968,defect,0
2162,4,full_information,14,11,rt308442,1380,defect,0
2162,4,full_information,14,11,rt136068,1883,defect,0
2162,4,full_information,14,11,rt410446,2303,defect,0
2162,4,full_information,14,11,rt715118,2493,defect,0
2162,4,full_information,14,11,rt639862,2668,defect,0
2162,4,full_information,14,11,rt667185,4443,defect,0
2162,4,full_information,14,11,rt883554,5734,defect,0
2162,4,full_information,14,11,rt738373,7483,defect,0
2162,4,full_information,14,11,rt376120,9371,defect,0
2162,4,full_information,14,11,rt502503,9875,defect,0
2162,4,full_information,14,11,rt548724,9968,defect,0
2162,4,full_information,15,11,rt308442,1380,defect,0
2162,4,full_information,15,11,rt136068,1883,defect,0
2162,4,full_information,15,11,rt410446,2303,defect,0
2162,4,full_information,15,11,rt715118,2493,defect,0
2162,4,full_information,15,11,rt639862,2668,defect,0
2162,4,full_information,15,11,rt667185,4443,defect,0
2162,4,full_information,15,11,rt883554,5734,defect,0
2162,4,full_information,15,11,rt738373,7483,defect,0
2162,4,full_information,15,11,rt376120,9371,defect,0
2162,4,full_information,15,11,rt502503,9875,defect,0
2162,4,full_information,15,11,rt548724,9968,defect,0
2162,4,behavior_only,1,11,rt136068,342,defect,4
2162,4,behavior_only,1,11,rt639862,1588,defect,4
2162,4,behavior_only,1,11,rt883554,4540,cooperate,-4
2162,4,behavior_only,1,11,rt667185,4922,defect,4
2162,4,behavior_only,1,11,rt410446,5032,defect,4
2162,4,behavior_only,1,11,rt548724,5087,defect,0
2162,4,behavior_only,1,11,rt715118,7358,defect,0
2162,4,behavior_only,1,11,rt738373,7620,defect,0
2162,4,behavior_only,1,11,rt376120,8964,defect,0
2162,4,behavior_only,1,11,rt502503,8979,defect,0
2162,4,behavior_only,1,11,rt308442,9664,defect,0
2162,4,behavior_only,2,11,rt136068,342,defect,4
2162,4,behavior_only,2,11,rt639862,1588,defect,0
2162,4,behavior_only,2,11,rt883554,4540,defect,0
2162,4,behavior_only,2,11,rt667185,4922,defect,0
2162,4,behavior_only,2,11,rt410446,5032,defect,0
2162,4,behavior_only,2,11,rt548724,5087,defect,0
2162,4,behavior_only,2,11,rt715118,7358,defect,4
2162,4,behavior_only,2,11,rt738373,7620,defect,8
2162,4,behavior_only,2,11,rt376120,8964,cooperate,0
2162,4,behavior_only,2,11,rt502503,8979,cooperate,0
2162,4,behavior_only,2,11,rt308442,9664,defect,8
2162,4,behavior_only,3,11,rt136068,342,defect,4
2162,4,behavior_only,3,11,rt639862,1588,defect,0
2162,4,behavior_only,3,11,rt883554,4540,defect,0
2162,4,behavior_only,3,11,rt667185,4922,defect,0
2162,4,behavior_only,3,11,rt410446,5032,defect,0
2162,4,behavior_only,3,11,rt548724,5087,defect,0
2162,4,behavior_only,3,11,rt715118,7358,defect,4
2162,4,behavior_only,3,11,rt738373,7620,defect,8
2162,4,behavior_only,3,11,rt376120,8964,cooperate,0
2162,4,behavior_only,3,11,rt502503,8979,cooperate,0
2162,4,behavior_only,3,11,rt308442,9664,defect,8
2162,4,behavior_only,4,11,rt136068,342,defect,4
2162,4,behavior_only,4,11,rt639862,1588,defect,0
2162,4,behavior_only,4,11,rt883554,4540,defect,0
2162,4,behavior_only,4,11,rt667185,4922,defect,0
2162,4,behavior_only,4,11,rt410446,5032,defect,0
2162,4,behavior_only,4,11,rt548724,5087,defect,0
2162,4,behavior_only,4,11,rt715118,7358,defect,0
2162,4,behavior_only,4,11,rt738373,7620,defect,4
2162,4,behavior_only,4,11,rt376120,8964,defect,4
2162,4,behavior_only,4,11,rt502503,8979,cooperate,-4
2162,4,behavior_only,4,11,rt308442,9664,defect,4
2162,4,behavior_only,5,11,rt136068,342,defect,0
2162,4,behavior_only,5,11,rt639862,1588,defect,0
2162,4,behavior_only,5,11,rt883554,4540,defect,0
2162,4,behavior_only,5,11,rt667185,4922,defect,0
2162,4,behavior_only,5,11,rt410446,5032,defect,0
2162,4,behavior_only,5,11,rt548724,5087,defect,0
2162,4,behavior_only,5,11,rt715118,7358,defect,0
2162,4,behavior_only,5,11,rt738373,7620,defect,0
2162,4,behavior_only,5,11,rt376120,8964,defect,0
2162,4,behavior_only,5,11,rt502503,8979,defect,0
2162,4,behavior_only,5,11,rt308442,9664,defect,0
2162,4,behavior_only,6,11,rt136068,342,cooperate,0
2162,4,behavior_only,6,11,rt639862,1588,defect,8
2162,4,behavior_only,6,11,rt883554,4540,cooperate,0
2162,4,behavior_only,6,11,rt667185,4922,defect,4
2162,4,behavior_only,6,11,rt410446,5032,defect,4
2162,4,behavior_only,6,11,rt548724,5087,defect,0
2162,4,behavior_only,6,11,rt715118,7358,defect,0
2162,4,behavior_only,6,11,rt738373,7620,defect,0
2162,4,behavior_only,6,11,rt376120,8964,defect,0
2162,4,behavior_only,6,11,rt502503,8979,defect,4
2162,4,behavior_only,6,11,rt308442,9664,defect,4
2162,4,behavior_only,7,11,rt136068,342,cooperate,0
2162,4,behavior_only,7,11,rt639862,1588,defect,8
2162,4,behavior_only,7,11,rt883554,4540,cooperate,0
2162,4,behavior_only,7,11,rt667185,4922,defect,4
2162,4,behavior_only,7,11,rt410446,5032,defect,4
2162,4,behavior_only,7,11,rt548724,5087,defect,0
2162,4,behavior_only,7,11,rt715118,7358,defect,0
2162,4,behavior_only,7,11,rt738373,7620,defect,0
2162,4,behavior_only,7,11,rt376120,8964,defect,0
2162,4,behavior_only,7,11,rt502503,8979,defect,4
2162,4,behavior_only,7,11,rt308442,9664,defect,4
2162,4,behavior_only,8,11,rt136068,342,cooperate,0
2162,4,behavior_only,8,11,rt639862,1588,defect,8
2162,4,behavior_only,8,11,rt883554,4540,cooperate,0
2162,4,behavior_only,8,11,rt667185,4922,defect,4
2162,4,behavior_only,8,11,rt410446,5032,defect,4
2162,4,behavior_only,8,11,rt548724,5087,defect,0
2162,4,behavior_only,8,11,rt715118,7358,defect,0
2162,4,behavior_only,8,11,rt738373,7620,defect,0
2162,4,behavior_only,8,11,rt376120,8964,defect,0
2162,4,behavior_only,8,11,rt502503,8979,defect,4
2162,4,behavior_only,8,11,rt308442,9664,defect,4
2162,4,behavior_only,9,11,rt136068,342,defect,4
2162,4,behavior_only,9,11,rt639862,1588,defect,4
2162,4,behavior_only,9,11,rt883554,4540,cooperate,-4
2162,4,behavior_only,9,11,rt667185,4922,defect,4
2162,4,behavior_only,9,11,rt410446,5032,defect,4
2162,4,behavior_only,9,11,rt548724,5087,defect,0
2162,4,behavior_only,9,11,rt715118,7358,defect,0
2162,4,behavior_only,9,11,rt738373,7620,defect,0
2162,4,behavior_only,9,11,rt376120,8964,defect,0
2162,4,behavior_only,9,11,rt502503,8979,defect,0
2162,4,behavior_only,9,11,rt308442,9664,defect,0
2162,4,behavior_only,10,11,rt136068,342,defect,4
2162,4,behavior_only,10,11,rt639862,1588,cooperate,-4
2162,4,behavior_only,10,11,rt883554,4540,defect,4
2162,4,behavior_only,10,11,rt667185,4922,defect,4
2162,4,behavior_only,10,11,rt410446,5032,defect,0
2162,4,behavior_only,10,11,rt548724,5087,defect,0
2162,4,behavior_only,10,11,rt715118,7358,defect,0
2162,4,behavior_only,10,11,rt738373,7620,defect,0
2162,4,behavior_only,10,11,rt376120,8964,defect,0
2162,4,behavior_only,10,11,rt502503,8979,defect,0
2162,4,behavior_only,10,11,rt308442,9664,defect,4
2162,4,behavior_only,11,11,rt136068,342,cooperate,-4
2162,4,behavior_only,11,11,rt639862,1588,defect,4
2162,4,behavior_only,11,11,rt883554,4540,defect,4
2162,4,behavior_only,11,11,rt667185,4922,defect,0
2162,4,behavior_only,11,11,rt410446,5032,defect,0
2162,4,behavior_only,11,11,rt548724,5087,defect,0
2162,4,behavior_only,11,11,rt715118,7358,defect,0
2162,4,behavior_only,11,11,rt738373,7620,defect,0
2162,4,behavior_only,11,11,rt376120,8964,defect,0
2162,4,behavior_only,11,11,rt502503,8979,defect,4
2162,4,behavior_only,11,11,rt308442,9664,defect,4
2162,4,behavior_only,12,11,rt136068,342,defect,0
2162,4,behavior_only,12,11,rt639862,1588,defect,0
2162,4,behavior_only,12,11,rt883554,4540,defect,0
2162,4,behavior_only,12,11,rt667185,4922,defect,0
2162,4,behavior_only,12,11,rt410446,5032,defect,0
2162,4,behavior_only,12,11,rt548724,5087,defect,0
2162,4,behavior_only,12,11,rt715118,7358,defect,0
2162,4,behavior_only,12,11,rt738373,7620,defect,0
2162,4,behavior_only,12,11,rt376120,8964,defect,0
2162,4,behavior_only,12,11,rt502503,8979,defect,0
2162,4,behavior_only,12,11,rt308442,9664,defect,0
2162,4,behavior_only,13,11,rt136068,342,defect,0
2162,4,behavior_only,13,11,rt639862,1588,defect,0
2162,4,behavior_only,13,11,rt883554,4540,defect,0
2162,4,behavior_only,13,11,rt667185,4922,defect,0
2162,4,behavior_only,13,11,rt410446,5032,defect,0
2162,4,behavior_only,13,11,rt548724,5087,defect,0
2162,4,behavior_only,13,11,rt715118,7358,defect,0
2162,4,behavior_only,13,11,rt738373,7620,defect,0
2162,4,behavior_only,13,11,rt376120,8964,defect,0
2162,4,behavior_only,13,11,rt502503,8979,defect,0
2162,4,behavior_only,13,11,rt308442,9664,defect,0
2162,4,behavior_only,14,11,rt136068,342,defect,0
2162,4,behavior_only,14,11,rt639862,1588,defect,0
2162,4,behavior_only,14,11,rt883554,4540,defect,0
2162,4,behavior_only,14,11,rt667185,4922,defect,0
2162,4,behavior_only,14,11,rt410446,5032,defect,0
2162,4,behavior_only,14,11,rt548724,5087,defect,0
2162,4,behavior_only,14,11,rt715118,7358,defect,0
2162,4,behavior_only,14,11,rt738373,7620,defect,0
2162,4,behavior_only,14,11,rt376120,8964,defect,0
2162,4,behavior_only,14,11,rt502503,8979,defect,0
2162,4,behavior_only,14,11,rt308442,9664,defect,0
2162,4,behavior_only,15,11,rt136068,342,defect,0
2162,4,behavior_only,15,11,rt639862,1588,defect,0
2162,4,behavior_only,15,11,rt883554,4540,defect,0
2162,4,behavior_only,15,11,rt667185,4922,defect,0
2162,4,behavior_only,15,11,rt410446,5032,defect,0
2162,4,behavior_only,15,11,rt548724,5087,defect,0
2162,4,behavior_only,15,11,rt715118,7358,defect,0
2162,4,behavior_only,15,11,rt738373,7620,defect,0
2162,4,behavior_only,15,11,rt376120,8964,defect,0
2162,4,behavior_only,15,11,rt502503,8979,defect,0
2162,4,behavior_only,15,11,rt308442,9664,defect,0
2162,4,summary_information,1,11,rt502503,1824,defect,12
2162,4,summary_information,1,11,rt376120,3148,cooperate,0
2162,4,summary_information,1,11,rt136068,4325,defect,4
2162,4,summary_information,1,11,rt308442,4622,defect,4
2162,4,summary_information,1,11,rt410446,5198,defect,0
2162,4,summary_information,1,11,rt548724,5419,defect,0
2162,4,summary_information,1,11,rt738373,6350,defect,0
2162,4,summary_information,1,11,rt667185,6459,defect,4
2162,4,summary_information,1,11,rt639862,7469,defect,8
2162,4,summary_information,1,11,rt883554,9607,cooperate,0
2162,4,summary_information,1,11,rt715118,9878,cooperate,4
2162,4,summary_information,2,11,rt502503,1824,defect,12
2162,4,summary_information,2,11,rt376120,3148,cooperate,4
2162,4,summary_information,2,11,rt136068,4325,cooperate,0
2162,4,summary_information,2,11,rt308442,4622,defect,8
2162,4,summary_information,2,11,rt410446,5198,defect,4
2162,4,summary_information,2,11,rt548724,5419,defect,0
2162,4,summary_information,2,11,rt738373,6350,defect,0
2162,4,summary_information,2,11,rt667185,6459,defect,0
2162,4,summary_information,2,11,rt639862,7469,defect,4
2162,4,summary_information,2,11,rt883554,9607,defect,4
2162,4,summary_information,2,11,rt715118,9878,cooperate,0
2162,4,summary_information,3,11,rt502503,1824,defect,12
2162,4,summary_information,3,11,rt376120,3148,cooperate,4
2162,4,summary_information,3,11,rt136068,4325,cooperate,0
2162,4,summary_information,3,11,rt308442,4622,defect,8
2162,4,summary_information,3,11,rt410446,5198,defect,4
2162,4,summary_information,3,11,rt548724,5419,defect,0
2162,4,summary_information,3,11,rt738373,6350,defect,0
2162,4,summary_information,3,11,rt667185,6459,defect,0
2162,4,summary_information,3,11,rt639862,7469,defect,4
2162,4,summary_information,3,11,rt883554,9607,defect,4
2162,4,summary_information,3,11,rt715118,9878,cooperate,0
2162,4,summary_information,4,11,rt502503,1824,defect,12
2162,4,summary_information,4,11,rt376120,3148,cooperate,4
2162,4,summary_information,4,11,rt136068,4325,cooperate,0
2162,4,summary_information,4,11,rt308442,4622,defect,8
2162,4,summary_information,4,11,rt410446,5198,defect,4
2162,4,summary_information,4,11,rt548724,5419,defect,0
2162,4,summary_information,4,11,rt738373,6350,defect,0
2162,4,summary_information,4,11,rt667185,6459,defect,0
2162,4,summary_information,4,11,rt639862,7469,defect,4
2162,4,summary_information,4,11,rt883554,9607,defect,4
2162,4,summary_information,4,11,rt715118,9878,cooperate,0
2162,4,summary_information,5,11,rt502503,1824,defect,8
2162,4,summary_information,5,11,rt376120,3148,cooperate,0
2162,4,summary_information,5,11,rt136068,4325,defect,4
2162,4,summary_information,5,11,rt308442,4622,defect,4
2162,4,summary_information,5,11,rt410446,5198,defect,0
2162,4,summary_information,5,11,rt548724,5419,defect,0
2162,4,summary_information,5,11,rt738373,6350,defect,0
2162,4,summary_information,5,11,rt667185,6459,defect,0
2162,4,summary_information,5,11,rt639862,7469,defect,4
2162,4,summary_information,5,11,rt883554,9607,defect,4
2162,4,summary_information,5,11,rt715118,9878,cooperate,0
2162,4,summary_information,6,11,rt502503,1824,defect,8
2162,4,summary_information,6,11,rt376120,3148,cooperate,0
2162,4,summary_information,6,11,rt136068,4325,defect,4
2162,4,summary_information,6,11,rt308442,4622,defect,4
2162,4,summary_information,6,11,rt410446,5198,defect,0
2162,4,summary_information,6,11,rt548724,5419,defect,0
2162,4,summary_information,6,11,rt738373,6350,defect,0
2162,4,summary_information,6,11,rt667185,6459,defect,0
2162,4,summary_information,6,11,rt639862,7469,defect,4
2162,4,summary_information,6,11,rt883554,9607,defect,4
2162,4,summary_information,6,11,rt715118,9878,cooperate,0
2162,4,summary_information,7,11,rt502503,1824,defect,4
2162,4,summary_information,7,11,rt376120,3148,cooperate,-4
2162,4,summary_information,7,11,rt136068,4325,defect,4
2162,4,summary_information,7,11,rt308442,4622,defect,4
2162,4,summary_information,7,11,rt410446,5198,defect,0
2162,4,summary_information,7,11,rt548724,5419,defect,0
2162,4,summary_information,7,11,rt738373,6350,defect,0
2162,4,summary_information,7,11,rt667185,6459,defect,0
2162,4,summary_information,7,11,rt639862,7469,defect,0
2162,4,summary_information,7,11,rt883554,9607,defect,0
2162,4,summary_information,7,11,rt715118,9878,defect,4
2162,4,summary_information,8,11,rt502503,1824,defect,0
2162,4,summary_information,8,11,rt376120,3148,defect,0
2162,4,summary_information,8,11,rt136068,4325,defect,0
2162,4,summary_information,8,11,rt308442,4622,defect,0
2162,4,summary_information,8,11,rt410446,5198,defect,0
2162,4,summary_information,8,11,rt548724,5419,defect,0
2162,4,summary_information,8,11,rt738373,6350,defect,0
2162,4,summary_information,8,11,rt667185,6459,defect,0
2162,4,summary_information,8,11,rt639862,7469,defect,0
2162,4,summary_information,8,11,rt883554,9607,defect,0
2162,4,summary_information,8,11,rt715118,9878,defect,0
2162,4,summary_information,9,11,rt502503,1824,defect,0
2162,4,summary_information,9,11,rt376120,3148,defect,0
2162,4,summary_information,9,11,rt136068,4325,defect,0
2162,4,summary_information,9,11,rt308442,4622,defect,0
2162,4,summary_information,9,11,rt410446,5198,defect,0
2162,4,summary_information,9,11,rt548724,5419,defect,0
2162,4,summary_information,9,11,rt738373,6350,defect,0
2162,4,summary_information,9,11,rt667185,6459,defect,0
2162,4,summary_information,9,11,rt639862,7469,defect,0
2162,4,summary_information,9,11,rt883554,9607,defect,0
2162,4,summary_information,9,11,rt715118,9878,defect,0
2162,4,summary_information,10,11,rt502503,1824,defect,0
2162,4,summary_information,10,11,rt376120,3148,defect,0
2162,4,summary_information,10,11,rt136068,4325,defect,0
2162,4,summary_information,10,11,rt308442,4622,defect,0
2162,4,summary_information,10,11,rt410446,5198,defect,0
2162,4,summary_information,10,11,rt548724,5419,defect,0
2162,4,summary_information,10,11,rt738373,6350,defect,0
2162,4,summary_information,10,11,rt667185,6459,defect,0
2162,4,summary_information,10,11,rt639862,7469,defect,0
2162,4,summary_information,10,11,rt883554,9607,defect,0
2162,4,summary_information,10,11,rt715118,9878,defect,0
2162,4,summary_information,11,11,rt502503,1824,defect,0
2162,4,summary_information,11,11,rt376120,3148,defect,0
2162,4,summary_information,11,11,rt136068,4325,defect,0
2162,4,summary_information,11,11,rt308442,4622,defect,0
2162,4,summary_information,11,11,rt410446,5198,defect,0
2162,4,summary_information,11,11,rt548724,5419,defect,0
2162,4,summary_information,11,11,rt738373,6350,defect,0
2162,4,summary_information,11,11,rt667185,6459,defect,0
2162,4,summary_information,11,11,rt639862,7469,defect,0
2162,4,summary_information,11,11,rt883554,9607,defect,0
2162,4,summary_information,11,11,rt715118,9878,defect,0
2162,4,summary_information,12,11,rt502503,1824,defect,0
2162,4,summary_information,12,11,rt376120,3148,defect,0
2162,4,summary_information,12,11,rt136068,4325,defect,0
2162,4,summary_information,12,11,rt308442,4622,defect,0
2162,4,summary_information,12,11,rt410446,5198,defect,0
2162,4,summary_information,12,11,rt548724,5419,defect,0
2162,4,summary_information,12,11,rt738373,6350,defect,0
2162,4,summary_information,12,11,rt667185,6459,defect,0
2162,4,summary_information,12,11,rt639862,7469,defect,0
2162,4,summary_information,12,11,rt883554,9607,defect,0
2162,4,summary_information,12,11,rt715118,9878,defect,0
2162,4,summary_information,13,11,rt502503,1824,defect,0
2162,4,summary_information,13,11,rt376120,3148,defect,0
2162,4,summary_information,13,11,rt136068,4325,defect,0
2162,4,summary_information,13,11,rt308442,4622,defect,0
2162,4,summary_information,13,11,rt410446,5198,defect,0
2162,4,summary_information,13,11,rt548724,5419,defect,0
2162,4,summary_information,13,11,rt738373,6350,defect,0
2162,4,summary_information,13,11,rt667185,6459,defect,0
2162,4,summary_information,13,11,rt639862,7469,defect,0
2162,4,summary_information,13,11,rt883554,9607,defect,0
2162,4,summary_information,13,11,rt715118,9878,defect,0
2162,4,summary_information,14,11,rt502503,1824,defect,0
2162,4,summary_information,14,11,rt376120,3148,defect,0
2162,4,summary_information,14,11,rt136068,4325,defect,0
2162,4,summary_information,14,11,rt308442,4622,defect,0
2162,4,summary_information,14,11,rt410446,5198,defect,0
2162,4,summary_information,14,11,rt548724,5419,defect,0
2162,4,summary_information,14,11,rt738373,6350,defect,0
2162,4,summary_information,14,11,rt667185,6459,defect,0
2162,4,summary_information,14,11,rt639862,7469,defect,0
2162,4,summary_information,14,11,rt883554,9607,defect,0
2162,4,summary_information,14,11,rt715118,9878,defect,0
2162,4,summary_information,15,11,rt502503,1824,defect,0
2162,4,summary_information,15,11,rt376120,3148,defect,0
2162,4,summary_information,15,11,rt136068,4325,defect,0
2162,4,summary_information,15,11,rt308442,4622,defect,0
2162,4,summary_information,15,11,rt410446,5198,defect,0
2162,4,summary_information,15,11,rt548724,5419,defect,0
2162,4,summary_information,15,11,rt738373,6350,defect,0
2162,4,summary_information,15,11,rt667185,6459,defect,0
2162,4,summary_information,15,11,rt639862,7469,defect,0
2162,4,summary_information,15,11,rt883554,9607,defect,0
2162,4,summary_information,15,11,rt715118,9878,defect,0
2404,6,summary_information,1,12,rt741550,221,cooperate,8
2404,6,summary_information,1,12,rt553863,1635,cooperate,14
2404,6,summary_information,1,12,rt824112,2014,cooperate,14
2404,6,summary_information,1,12,rt491628,2283,cooperate,8
2404,6,summary_information,1,12,rt157172,3051,defect,12
2404,6,summary_information,1,12,rt309018,4174,defect,6
2404,6,summary_information,1,12,rt173884,6097,defect,6
2404,6,summary_information,1,12,rt404421,6502,defect,12
2404,6,summary_information,1,12,rt590511,6776,cooperate,2
2404,6,summary_information,1,12,rt961985,7269,cooperate,2
2404,6,summary_information,1,12,rt244891,7806,defect,18
2404,6,summary_information,1,12,rt389856,8413,defect,18
2404,6,summary_information,2,12,rt741550,221,defect,12
2404,6,summary_information,2,12,rt553863,1635,cooperate,2
2404,6,summary_information,2,12,rt824112,2014,cooperate,2
2404,6,summary_information,2,12,rt491628,2283,defect,18
2404,6,summary_information,2,12,rt157172,3051,defect,12
2404,6,summary_information,2,12,rt309018,4174,cooperate,-4
2404,6,summary_information,2,12,rt173884,6097,defect,6
2404,6,summary_information,2,12,rt404421,6502,defect,6
2404,6,summary_information,2,12,rt590511,6776,defect,0
2404,6,summary_information,2,12,rt961985,7269,defect,0
2404,6,summary_information,2,12,rt244891,7806,defect,0
2404,6,summary_information,2,12,rt389856,8413,defect,6
2404,6,summary_information,3,12,rt741550,221,defect,18
2404,6,summary_information,3,12,rt553863,1635,defect,18
2404,6,summary_information,3,12,rt824112,2014,cooperate,8
2404,6,summary_information,3,12,rt491628,2283,cooperate,8
2404,6,summary_information,3,12,rt157172,3051,cooperate,8
2404,6,summary_information,3,12,rt309018,4174,defect,12
2404,6,summary_information,3,12,rt173884,6097,defect,6
2404,6,summary_information,3,12,rt404421,6502,defect,6
2404,6,summary_information,3,12,rt590511,6776,defect,12
2404,6,summary_information,3,12,rt961985,7269,cooperate,8
2404,6,summary_information,3,12,rt244891,7806,cooperate,8
2404,6,summary_information,3,12,rt389856,8413,cooperate,8
2404,6,summary_information,4,12,rt741550,221,defect,6
2404,6,summary_information,4,12,rt553863,1635,defect,6
2404,6,summary_information,4,12,rt824112,2014,defect,6
2404,6,summary_information,4,12,rt491628,2283,cooperate,-4
2404,6,summary_information,4,12,rt157172,3051,defect,6
2404,6,summary_information,4,12,rt309018,4174,defect,12
2404,6,summary_information,4,12,rt173884,6097,defect,12
2404,6,summary_information,4,12,rt404421,6502,cooperate,2
2404,6,summary_information,4,12,rt590511,6776,cooperate,8
2404,6,summary_information,4,12,rt961985,7269,defect,18
2404,6,summary_information,4,12,rt244891,7806,cooperate,2
2404,6,summary_information,4,12,rt389856,8413,defect,6
2404,6,summary_information,5,12,rt741550,221,cooperate,2
2404,6,summary_information,5,12,rt553863,1635,defect,12
2404,6,summary_information,5,12,rt824112,2014,defect,6
2404,6,summary_information,5,12,rt491628,2283,defect,0
2404,6,summary_information,5,12,rt157172,3051,defect,0
2404,6,summary_information,5,12,rt309018,4174,defect,6
2404,6,summary_information,5,12,rt173884,6097,defect,12
2404,6,summary_information,5,12,rt404421,6502,cooperate,8
2404,6,summary_information,5,12,rt590511,6776,cooperate,8
2404,6,summary_information,5,12,rt961985,7269,cooperate,14
2404,6,summary_information,5,12,rt244891,7806,defect,24
2404,6,summary_information,5,12,rt389856,8413,cooperate,8
2404,6,summary_information,6,12,rt741550,221,defect,6
2404,6,summary_information,6,12,rt553863,1635,defect,6
2404,6,summary_information,6,12,rt824112,2014,cooperate,-4
2404,6,summary_information,6,12,rt491628,2283,defect,6
2404,6,summary_information,6,12,rt157172,3051,defect,6
2404,6,summary_information,6,12,rt309018,4174,defect,0
2404,6,summary_information,6,12,rt173884,6097,defect,6
2404,6,summary_information,6,12,rt404421,6502,defect,12
2404,6,summary_information,6,12,rt590511,6776,cooperate,2
2404,6,summary_information,6,12,rt961985,7269,cooperate,2
2404,6,summary_information,6,12,rt244891,7806,defect,12
2404,6,summary_information,6,12,rt389856,8413,defect,6
2404,6,summary_information,7,12,rt741550,221,defect,6
2404,6,summary_information,7,12,rt553863,1635,defect,6
2404,6,summary_information,7,12,rt824112,2014,defect,6
2404,6,summary_information,7,12,rt491628,2283,defect,6
2404,6,summary_information,7,12,rt157172,3051,cooperate,-4
2404,6,summary_information,7,12,rt309018,4174,defect,6
2404,6,summary_information,7,12,rt173884,6097,defect,6
2404,6,summary_information,7,12,rt404421,6502,defect,0
2404,6,summary_information,7,12,rt590511,6776,defect,0
2404,6,summary_information,7,12,rt961985,7269,defect,6
2404,6,summary_information,7,12,rt244891,7806,defect,6
2404,6,summary_information,7,12,rt389856,8413,cooperate,-4
2404,6,summary_information,8,12,rt741550,221,defect,12
2404,6,summary_information,8,12,rt553863,1635,defect,6
2404,6,summary_information,8,12,rt824112,2014,defect,0
2404,6,summary_information,8,12,rt491628,2283,defect,0
2404,6,summary_information,8,12,rt157172,3051,defect,0
2404,6,summary_information,8,12,rt309018,4174,defect,0
2404,6,summary_information,8,12,rt173884,6097,defect,6
2404,6,summary_information,8,12,rt404421,6502,defect,6
2404,6,summary_information,8,12,rt590511,6776,cooperate,2
2404,6,summary_information,8,12,rt961985,7269,defect,18
2404,6,summary_information,8,12,rt244891,7806,cooperate,8
2404,6,summary_information,8,12,rt389856,8413,cooperate,2
2404,6,summary_information,9,12,rt741550,221,defect,12
2404,6,summary_information,9,12,rt553863,1635,defect,12
2404,6,summary_information,9,12,rt824112,2014,cooperate,-4
2404,6,summary_information,9,12,rt491628,2283,defect,6
2404,6,summary_information,9,12,rt157172,3051,defect,6
2404,6,summary_information,9,12,rt309018,4174,defect,0
2404,6,summary_information,9,12,rt173884,6097,defect,0
2404,6,summary_information,9,12,rt404421,6502,defect,0
2404,6,summary_information,9,12,rt590511,6776,defect,0
2404,6,summary_information,9,12,rt961985,7269,defect,6
2404,6,summary_information,9,12,rt244891,7806,defect,6
2404,6,summary_information,9,12,rt389856,8413,cooperate,-4
2404,6,summary_information,10,12,rt741550,221,defect,6
2404,6,summary_information,10,12,rt553863,1635,defect,6
2404,6,summary_information,10,12,rt824112,2014,defect,6
2404,6,summary_information,10,12,rt491628,2283,defect,6
2404,6,summary_information,10,12,rt157172,3051,cooperate,-4
2404,6,summary_information,10,12,rt309018,4174,defect,6
2404,6,summary_information,10,12,rt173884,6097,defect,6
2404,6,summary_information,10,12,rt404421,6502,defect,0
2404,6,summary_information,10,12,rt590511,6776,defect,0
2404,6,summary_information,10,12,rt961985,7269,defect,6
2404,6,summary_information,10,12,rt244891,7806,defect,6
2404,6,summary_information,10,12,rt389856,8413,cooperate,-4
2404,6,summary_information,11,12,rt741550,221,defect,12
2404,6,summary_information,11,12,rt553863,1635,defect,6
2404,6,summary_information,11,12,rt824112,2014,defect,0
2404,6,summary_information,11,12,rt491628,2283,defect,0
2404,6,summary_information,11,12,rt157172,3051,defect,0
2404,6,summary_information,11,12,rt309018,4174,defect,0
2404,6,summary_information,11,12,rt173884,6097,defect,0
2404,6,summary_information,11,12,rt404421,6502,defect,6
2404,6,summary_information,11,12,rt590511,6776,defect,12
2404,6,summary_information,11,12,rt961985,7269,cooperate,8
2404,6,summary_information,11,12,rt244891,7806,cooperate,8
2404,6,summary_information,11,12,rt389856,8413,cooperate,8
2404,6,summary_information,12,12,rt741550,221,defect,6
2404,6,summary_information,12,12,rt553863,1635,defect,6
2404,6,summary_information,12,12,rt824112,2014,defect,6
2404,6,summary_information,12,12,rt491628,2283,defect,6
2404,6,summary_information,12,12,rt157172,3051,cooperate,-4
2404,6,summary_information,12,12,rt309018,4174,defect,6
2404,6,summary_information,12,12,rt173884,6097,defect,12
2404,6,summary_information,12,12,rt404421,6502,defect,6
2404,6,summary_information,12,12,rt590511,6776,cooperate,-4
2404,6,summary_information,12,12,rt961985,7269,defect,12
2404,6,summary_information,12,12,rt244891,7806,defect,12
2404,6,summary_information,12,12,rt389856,8413,cooperate,-4
2404,6,summary_information,13,12,rt741550,221,defect,6
2404,6,summary_information,13,12,rt553863,1635,defect,6
2404,6,summary_information,13,12,rt824112,2014,defect,0
2404,6,summary_information,13,12,rt491628,2283,defect,6
2404,6,summary_information,13,12,rt157172,3051,defect,6
2404,6,summary_information,13,12,rt309018,4174,cooperate,2
2404,6,summary_information,13,12,rt173884,6097,defect,12
2404,6,summary_information,13,12,rt404421,6502,cooperate,2
2404,6,summary_information,13,12,rt590511,6776,defect,6
2404,6,summary_information,13,12,rt961985,7269,defect,12
2404,6,summary_information,13,12,rt244891,7806,defect,6
2404,6,summary_information,13,12,rt389856,8413,cooperate,-4
2404,6,summary_information,14,12,rt741550,221,defect,12
2404,6,summary_information,14,12,rt553863,1635,defect,6
2404,6,summary_information,14,12,rt824112,2014,defect,0
2404,6,summary_information,14,12,rt491628,2283,defect,0
2404,6,summary_information,14,12,rt157172,3051,defect,0
2404,6,summary_information,14,12,rt309018,4174,defect,6
2404,6,summary_information,14,12,rt173884,6097,defect,12
2404,6,summary_information,14,12,rt404421,6502,cooperate,8
2404,6,summary_information,14,12,rt590511,6776,cooperate,14
2404,6,summary_information,14,12,rt961985,7269,cooperate,20
2404,6,summary_information,14,12,rt244891,7806,cooperate,14
2404,6,summary_information,14,12,rt389856,8413,cooperate,8
2404,6,summary_information,15,12,rt741550,221,defect,12
2404,6,summary_information,15,12,rt553863,1635,defect,6
2404,6,summary_information,15,12,rt824112,2014,defect,6
2404,6,summary_information,15,12,rt491628,2283,defect,6
2404,6,summary_information,15,12,rt157172,3051,cooperate,-4
2404,6,summary_information,15,12,rt309018,4174,defect,6
2404,6,summary_information,15,12,rt173884,6097,defect,12
2404,6,summary_information,15,12,rt404421,6502,defect,6
2404,6,summary_information,15,12,rt590511,6776,cooperate,2
2404,6,summary_information,15,12,rt961985,7269,defect,18
2404,6,summary_information,15,12,rt244891,7806,cooperate,8
2404,6,summary_information,15,12,rt389856,8413,cooperate,2
2404,6,behavior_only,1,11,rt157172,1941,defect,12
2404,6,behavior_only,1,11,rt309018,2520,defect,12
2404,6,behavior_only,1,11,rt244891,5111,cooperate,-4
2404,6,behavior_only,1,11,rt173884,5318,defect,6
2404,6,behavior_only,1,11,rt741550,7394,defect,6
2404,6,behavior_only,1,11,rt491628,8067,defect,6
2404,6,behavior_only,1,11,rt404421,8832,defect,12
2404,6,behavior_only,1,11,rt824112,8880,cooperate,2
2404,6,behavior_only,1,11,rt590511,8993,cooperate,8
2404,6,behavior_only,1,11,rt553863,9435,defect,18
2404,6,behavior_only,1,11,rt961985,9862,cooperate,2
2404,6,behavior_only,2,11,rt157172,1941,defect,6
2404,6,behavior_only,2,11,rt309018,2520,defect,6
2404,6,behavior_only,2,11,rt244891,5111,defect,0
2404,6,behavior_only,2,11,rt173884,5318,defect,0
2404,6,behavior_only,2,11,rt741550,7394,defect,0
2404,6,behavior_only,2,11,rt491628,8067,defect,6
2404,6,behavior_only,2,11,rt404421,8832,defect,12
2404,6,behavior_only,2,11,rt824112,8880,cooperate,2
2404,6,behavior_only,2,11,rt590511,8993,cooperate,8
2404,6,behavior_only,2,11,rt553863,9435,defect,18
2404,6,behavior_only,2,11,rt961985,9862,cooperate,2
2404,6,behavior_only,3,11,rt157172,1941,defect,6
2404,6,behavior_only,3,11,rt309018,2520,defect,6
2404,6,behavior_only,3,11,rt244891,5111,cooperate,-4
2404,6,behavior_only,3,11,rt173884,5318,defect,6
2404,6,behavior_only,3,11,rt741550,7394,defect,6
2404,6,behavior_only,3,11,rt491628,8067,defect,6
2404,6,behavior_only,3,11,rt404421,8832,defect,12
2404,6,behavior_only,3,11,rt824112,8880,cooperate,2
2404,6,behavior_only,3,11,rt590511,8993,cooperate,2
2404,6,behavior_only,3,11,rt553863,9435,defect,12
2404,6,behavior_only,3,11,rt961985,9862,defect,6
2404,6,behavior_only,4,11,rt157172,1941,defect,12
2404,6,behavior_only,4,11,rt309018,2520,cooperate,2
2404,6,behavior_only,4,11,rt244891,5111,defect,6
2404,6,behavior_only,4,11,rt173884,5318,defect,6
2404,6,behavior_only,4,11,rt741550,7394,defect,0
2404,6,behavior_only,4,11,rt491628,8067,defect,6
2404,6,behavior_only,4,11,rt404421,8832,defect,6
2404,6,behavior_only,4,11,rt824112,8880,cooperate,-4
2404,6,behavior_only,4,11,rt590511,8993,defect,12
2404,6,behavior_only,4,11,rt553863,9435,defect,12
2404,6,behavior_only,4,11,rt961985,9862,cooperate,2
2404,6,behavior_only,5,11,rt157172,1941,defect,12
2404,6,behavior_only,5,11,rt309018,2520,cooperate,2
2404,6,behavior_only,5,11,rt244891,5111,defect,6
2404,6,behavior_only,5,11,rt173884,5318,defect,6
2404,6,behavior_only,5,11,rt741550,7394,defect,6
2404,6,behavior_only,5,11,rt491628,8067,defect,12
2404,6,behavior_only,5,11,rt404421,8832,cooperate,8
2404,6,behavior_only,5,11,rt824112,8880,cooperate,8
2404,6,behavior_only,5,11,rt590511,8993,cooperate,14
2404,6,behavior_only,5,11,rt553863,9435,defect,18
2404,6,behavior_only,5,11,rt961985,9862,cooperate,8
2404,6,behavior_only,6,11,rt157172,1941,defect,12
2404,6,behavior_only,6,11,rt309018,2520,defect,12
2404,6,behavior_only,6,11,rt244891,5111,cooperate,-4
2404,6,behavior_only,6,11,rt173884,5318,defect,6
2404,6,behavior_only,6,11,rt741550,7394,defect,6
2404,6,behavior_only,6,11,rt491628,8067,defect,6
2404,6,behavior_only,6,11,rt404421,8832,defect,12
2404,6,behavior_only,6,11,rt824112,8880,cooperate,2
2404,6,behavior_only,6,11,rt590511,8993,cooperate,8
2404,6,behavior_only,6,11,rt553863,9435,defect,18
2404,6,behavior_only,6,11,rt961985,9862,cooperate,2
2404,6,behavior_only,7,11,rt157172,1941,defect,0
2404,6,behavior_only,7,11,rt309018,2520,defect,0
2404,6,behavior_only,7,11,rt244891,5111,defect,0
2404,6,behavior_only,7,11,rt173884,5318,defect,0
2404,6,behavior_only,7,11,rt741550,7394,defect,0
2404,6,behavior_only,7,11,rt491628,8067,defect,6
2404,6,behavior_only,7,11,rt404421,8832,defect,6
2404,6,behavior_only,7,11,rt824112,8880,cooperate,-4
2404,6,behavior_only,7,11,rt590511,8993,defect,6
2404,6,behavior_only,7,11,rt553863,9435,defect,6
2404,6,behavior_only,7,11,rt961985,9862,defect,0
2404,6,behavior_only,8,11,rt157172,1941,defect,6
2404,6,behavior_only,8,11,rt309018,2520,defect,6
2404,6,behavior_only,8,11,rt244891,5111,cooperate,-4
2404,6,behavior_only,8,11,rt173884,5318,defect,6
2404,6,behavior_only,8,11,rt741550,7394,defect,12
2404,6,behavior_only,8,11,rt491628,8067,defect,12
2404,6,behavior_only,8,11,rt404421,8832,cooperate,8
2404,6,behavior_only,8,11,rt824112,8880,cooperate,8
2404,6,behavior_only,8,11,rt590511,8993,cooperate,8
2404,6,behavior_only,8,11,rt553863,9435,defect,12
2404,6,behavior_only,8,11,rt961985,9862,defect,6
2404,6,behavior_only,9,11,rt157172,1941,defect,12
2404,6,behavior_only,9,11,rt309018,2520,cooperate,2
2404,6,behavior_only,9,11,rt244891,5111,defect,6
2404,6,behavior_only,9,11,rt173884,5318,defect,6
2404,6,behavior_only,9,11,rt741550,7394,defect,0
2404,6,behavior_only,9,11,rt491628,8067,defect,6
2404,6,behavior_only,9,11,rt404421,8832,defect,6
2404,6,behavior_only,9,11,rt824112,8880,cooperate,-4
2404,6,behavior_only,9,11,rt590511,8993,defect,12
2404,6,behavior_only,9,11,rt553863,9435,defect,12
2404,6,behavior_only,9,11,rt961985,9862,cooperate,2
2404,6,behavior_only,10,11,rt157172,1941,defect,0
2404,6,behavior_only,10,11,rt309018,2520,defect,0
2404,6,behavior_only,10,11,rt244891,5111,defect,0
2404,6,behavior_only,10,11,rt173884,5318,defect,0
2404,6,behavior_only,10,11,rt741550,7394,defect,6
2404,6,behavior_only,10,11,rt491628,8067,defect,12
2404,6,behavior_only,10,11,rt404421,8832,cooperate,8
2404,6,behavior_only,10,11,rt824112,8880,cooperate,8
2404,6,behavior_only,10,11,rt590511,8993,cooperate,8
2404,6,behavior_only,10,11,rt553863,9435,defect,12
2404,6,behavior_only,10,11,rt961985,9862,defect,6
2404,6,behavior_only,11,11,rt157172,1941,defect,6
2404,6,behavior_only,11,11,rt309018,2520,defect,6
2404,6,behavior_only,11,11,rt244891,5111,cooperate,-4
2404,6,behavior_only,11,11,rt173884,5318,defect,6
2404,6,behavior_only,11,11,rt741550,7394,defect,12
2404,6,behavior_only,11,11,rt491628,8067,defect,12
2404,6,behavior_only,11,11,rt404421,8832,cooperate,8
2404,6,behavior_only,11,11,rt824112,8880,cooperate,8
2404,6,behavior_only,11,11,rt590511,8993,cooperate,8
2404,6,behavior_only,11,11,rt553863,9435,defect,12
2404,6,behavior_only,11,11,rt961985,9862,defect,6
2404,6,behavior_only,12,11,rt157172,1941,defect,6
2404,6,behavior_only,12,11,rt309018,2520,defect,6
2404,6,behavior_only,12,11,rt244891,5111,cooperate,-4
2404,6,behavior_only,12,11,rt173884,5318,defect,6
2404,6,behavior_only,12,11,rt741550,7394,defect,12
2404,6,behavior_only,12,11,rt491628,8067,defect,12
2404,6,behavior_only,12,11,rt404421,8832,cooperate,2
2404,6,behavior_only,12,11,rt824112,8880,cooperate,2
2404,6,behavior_only,12,11,rt590511,8993,defect,12
2404,6,behavior_only,12,11,rt553863,9435,defect,6
2404,6,behavior_only,12,11,rt961985,9862,defect,0
2404,6,behavior_only,13,11,rt157172,1941,defect,0
2404,6,behavior_only,13,11,rt309018,2520,defect,0
2404,6,behavior_only,13,11,rt244891,5111,defect,0
2404,6,behavior_only,13,11,rt173884,5318,defect,0
2404,6,behavior_only,13,11,rt741550,7394,defect,0
2404,6,behavior_only,13,11,rt491628,8067,defect,6
2404,6,behavior_only,13,11,rt404421,8832,defect,12
2404,6,behavior_only,13,11,rt824112,8880,cooperate,2
2404,6,behavior_only,13,11,rt590511,8993,cooperate,2
2404,6,behavior_only,13,11,rt553863,9435,defect,12
2404,6,behavior_only,13,11,rt961985,9862,defect,6
2404,6,behavior_only,14,11,rt157172,1941,defect,6
2404,6,behavior_only,14,11,rt309018,2520,defect,6
2404,6,behavior_only,14,11,rt244891,5111,defect,0
2404,6,behavior_only,14,11,rt173884,5318,defect,0
2404,6,behavior_only,14,11,rt741550,7394,defect,6
2404,6,behavior_only,14,11,rt491628,8067,defect,12
2404,6,behavior_only,14,11,rt404421,8832,cooperate,8
2404,6,behavior_only,14,11,rt824112,8880,cooperate,8
2404,6,behavior_only,14,11,rt590511,8993,cooperate,14
2404,6,behavior_only,14,11,rt553863,9435,defect,18
2404,6,behavior_only,14,11,rt961985,9862,cooperate,2
2404,6,behavior_only,15,11,rt157172,1941,defect,6
2404,6,behavior_only,15,11,rt309018,2520,defect,6
2404,6,behavior_only,15,11,rt244891,5111,defect,0
2404,6,behavior_only,15,11,rt173884,5318,defect,0
2404,6,behavior_only,15,11,rt741550,7394,defect,6
2404,6,behavior_only,15,11,rt491628,8067,defect,12
2404,6,behavior_only,15,11,rt404421,8832,cooperate,8
2404,6,behavior_only,15,11,rt824112,8880,cooperate,8
2404,6,behavior_only,15,11,rt590511,8993,cooperate,14
2404,6,behavior_only,15,11,rt553863,9435,defect,18
2404,6,behavior_only,15,11,rt961985,9862,cooperate,2
2404,6,full_information,1,11,rt741550,2239,defect,18
2404,6,full_information,1,11,rt590511,3142,cooperate,8
2404,6,full_information,1,11,rt491628,3933,defect,18
2404,6,full_information,1,11,rt404421,7466,cooperate,8
2404,6,full_information,1,11,rt961985,7637,cooperate,2
2404,6,full_information,1,11,rt309018,8375,defect,12
2404,6,full_information,1,11,rt157172,8582,defect,6
2404,6,full_information,1,11,rt553863,8953,defect,6
2404,6,full_information,1,11,rt173884,9675,defect,12
2404,6,full_information,1,11,rt244891,9869,cooperate,2
2404,6,full_information,1,11,rt824112,9990,cooperate,8
2404,6,full_information,2,11,rt741550,2239,defect,6
2404,6,full_information,2,11,rt590511,3142,defect,12
2404,6,full_information,2,11,rt491628,3933,defect,12
2404,6,full_information,2,11,rt404421,7466,cooperate,2
2404,6,full_information,2,11,rt961985,7637,cooperate,2
2404,6,full_information,2,11,rt309018,8375,defect,12
2404,6,full_information,2,11,rt157172,8582,defect,6
2404,6,full_information,2,11,rt553863,8953,defect,0
2404,6,full_information,2,11,rt173884,9675,defect,6
2404,6,full_information,2,11,rt244891,9869,defect,6
2404,6,full_information,2,11,rt824112,9990,cooperate,-4
2404,6,full_information,3,11,rt741550,2239,defect,12
2404,6,full_information,3,11,rt590511,3142,cooperate,2
2404,6,full_information,3,11,rt491628,3933,defect,6
2404,6,full_information,3,11,rt404421,7466,defect,6
2404,6,full_information,3,11,rt961985,7637,defect,0
2404,6,full_information,3,11,rt309018,8375,defect,0
2404,6,full_information,3,11,rt157172,8582,defect,0
2404,6,full_information,3,11,rt553863,8953,defect,0
2404,6,full_information,3,11,rt173884,9675,defect,6
